onset	duration	total_event_number	stream_number	event_num_per_stream	timing_predictability	target_col	target_ori	n_targets	n_distractors	is_target	ori_pair_num	att_ori	unatt_ori	gabor_phase_att	gabor_phase_unatt	blank_dur	response	rt	correct	time_stimon	time_stimoff	stim_dur	ISI_dur
12043	100	0	0	0	1	2	0	1	1	3	1	112.5	67.5	-2.2679591706917	-2.38338129132919	0.2	0	0	0	40.1982803621795	40.2982293814421	0.0999490192625672	-1
12118	100	1	0	1	1	2	0	1	1	3	1	22.5	67.5	-1.55076847850663	-2.12640414583123	0.2	0	0	0	40.498271999415	40.5982295521535	0.0999575527384877	0.20004261797294
12193	100	2	0	2	1	2	0	1	1	3	1	112.5	157.5	-2.56893356055199	1.83983056964004	0.2	0	0	0	40.7982850919943	40.8982428885065	0.0999577965121716	0.200055539840832
12268	100	3	0	3	1	2	0	1	1	3	2	67.5	112.5	-3.05800445659254	2.00924422171848	0.2	0	0	0	41.0982618569396	41.1982706096023	0.100008752662688	0.200018968433142
12343	100	4	0	4	1	2	0	1	1	0	1	22.5	67.5	-1.3946836908613	0.196605192459509	0.2	0	0	0	41.3982817761134	41.4982571271248	0.0999753510113806	0.200011166511104
12418	100	5	0	5	1	2	0	1	1	0	2	67.5	112.5	2.57401267101087	2.85610725702749	0.2	0	0	0	41.6982760953251	41.7982892368454	0.100013141520321	0.200018968200311
12493	100	6	0	6	1	2	0	1	1	0	1	22.5	157.5	-1.20339350298496	0.127190349715847	0.2	0	0	0	41.9983145440929	42.098280874081	0.0999663299880922	0.200025307247415
12568	100	7	0	7	1	2	0	1	1	0	1	22.5	67.5	1.67700469919012	1.41018166379341	0.2	0	0	0	42.2983210538514	42.3983103018254	0.0999892479740083	0.20004017977044
12643	100	8	0	8	1	2	0	1	1	0	2	157.5	22.5	0.232937291494275	-1.50859896864761	0.2	0	0	0	42.5983268322889	42.6983034021687	0.0999765698798001	0.200016530463472
12718	100	9	0	9	1	2	0	1	1	0	2	67.5	112.5	-1.3335193609106	-0.106677723150062	0.2	0	0	0	42.8983416315168	42.998319420265	0.0999777887482196	0.200038229348138
12793	100	10	0	10	1	2	0	1	1	0	1	112.5	157.5	0.743383240736537	2.29237184905002	0.2	0	0	0	43.1983508230187	43.298332025297	0.0999812022782862	0.200031402753666
12868	100	11	0	11	1	2	0	1	1	0	1	22.5	157.5	-1.03899907070139	-0.493265924745504	0.2	0	0	0	43.4983412413858	43.598336096853	0.0999948554672301	0.200009216088802
12943	100	12	0	12	1	2	0	1	1	0	1	112.5	67.5	-3.11955644583675	-2.41332597023742	0.2	0	0	0	43.7983665242791	43.8983513838612	0.0999848595820367	0.2000304274261
13018	100	13	0	13	1	2	0	1	1	0	1	22.5	67.5	-1.51008079631154	-0.5845186861408	0.2	0	0	0	44.098355723545	44.1983532612212	0.099997537676245	0.200004339683801
13093	100	14	0	14	1	2	0	1	1	0	1	112.5	157.5	2.72149191099458	-0.146034670688883	0.2	0	0	0	44.3983566258103	44.4989702701569	0.100613644346595	0.200003364589065
13168	100	15	0	15	1	2	0	1	1	0	2	67.5	112.5	0.109784274254724	-1.75462509617229	0.2	0	0	0	44.698361672461	44.7983462882694	0.0999846158083528	0.199391402304173
13243	100	16	0	16	1	2	0	1	1	0	2	67.5	22.5	2.35981103480136	2.49190895676452	0.2	0	0	0	44.9983655004762	45.0983766913414	0.100011190865189	0.200019212206826
13318	100	17	0	17	1	2	0	1	1	3	1	22.5	157.5	-2.22465190599418	-0.352801115995148	0.2	0	0	0	45.2984078500886	45.3983863703907	0.099978520302102	0.200031158747151
13393	100	18	0	18	1	2	0	1	1	3	2	67.5	112.5	-2.76872963466387	-0.259037119165691	0.2	0	0	0	45.5984046075027	45.6983926363755	0.0999880288727582	0.20001823711209
13468	100	19	0	19	1	2	0	1	1	3	1	112.5	157.5	-2.78590298331338	0.428157814960503	0.2	0	0	0	45.898402096238	45.9983769594692	0.0999748632311821	0.200009459862486
13543	100	20	0	20	1	2	0	1	1	2	-1	135	0	-2.76251356642669	-0.0433301029145716	0.2	0	0	0	46.1983993411995	46.2983800559305	0.0999807147309184	0.200022381730378
13618	100	21	0	21	1	2	0	1	1	3	2	67.5	22.5	-1.81610233757809	-0.505099862114617	0.2	0	0	0	46.498407313833	46.5984202113468	0.100012897513807	0.200027257902548
13693	100	22	0	22	1	2	0	1	1	3	1	112.5	67.5	-3.04966605478414	0.388914438049501	0.2	0	0	0	46.7984445434995	46.8984081915114	0.0999636480119079	0.20002433215268
13768	100	23	0	23	1	2	0	1	1	3	2	157.5	112.5	-2.22028259837304	-2.16641584130626	0.2	0	0	0	47.0984505654778	47.198440301232	0.0999897357542068	0.200042373966426
13843	100	24	0	24	1	2	0	1	1	3	2	157.5	22.5	2.26443304454909	-2.09492433262545	0.2	0	0	0	47.398458781885	47.498438765062	0.099979983177036	0.200018480652943
13918	100	25	0	25	1	2	0	1	1	0	1	22.5	67.5	2.14842035117519	-0.173805786016017	0.2	0	0	0	47.6984638287686	47.7984479567967	0.0999841280281544	0.200025063706562
13993	100	26	0	26	1	2	0	1	1	0	1	112.5	157.5	-2.19339661931475	0.455302260205715	0.2	0	0	0	47.9984771651216	48.0984539790079	0.0999768138863146	0.20002920832485
14068	100	27	0	27	1	2	0	1	1	0	1	22.5	157.5	-2.97243942111408	-0.606075851335242	0.2	0	0	0	48.2984868444037	48.3984426904935	0.0999558460898697	0.200032865395769
14143	100	28	0	28	1	2	0	1	1	0	2	67.5	22.5	0.101780929934819	2.97113647013357	0.2	0	0	0	48.5984979865607	48.6984760193154	0.0999780327547342	0.200055296067148
14218	100	29	0	29	1	2	0	1	1	0	1	22.5	157.5	1.31926411700431	0.321464938223091	0.2	0	0	0	48.8985062029678	48.9984837479424	0.0999775449745357	0.200030183652416
14293	100	30	0	30	1	2	0	1	1	0	1	22.5	157.5	-0.139377832401495	-0.325675637450473	0.2	0	0	0	49.1985117373988	49.2984987911768	0.0999870537780225	0.20002798945643
14368	100	31	0	31	1	2	0	1	1	0	1	112.5	157.5	-0.225166599686314	1.63181737954964	0.2	0	0	0	49.4985038624145	49.5984862835612	0.0999824211467057	0.200005071237683
14443	100	32	0	32	1	2	0	1	1	0	2	67.5	22.5	-0.228118308454344	0.00494557804939877	0.2	0	0	0	49.7985098843928	49.8984886487015	0.0999787643086165	0.200023600831628
14518	100	33	0	33	1	2	0	1	1	0	1	112.5	157.5	2.53953715036996	-0.831981799152717	0.2	0	0	0	50.0985176132526	50.1984988155309	0.0999812022782862	0.200028964551166
14593	100	34	0	34	1	2	0	1	1	0	1	22.5	67.5	-2.25726382284402	1.28737075673381	0.2	0	0	0	50.3985375324264	50.4985321443528	0.0999946119263768	0.200038716895506
14668	100	35	0	35	1	2	0	1	1	0	2	157.5	112.5	-0.610718647390033	-0.22634412223438	0.2	0	0	0	50.6985240497161	50.7985062273219	0.0999821776058525	0.199991905363277
14743	100	36	0	36	1	2	0	1	1	0	2	157.5	22.5	-2.17393776812515	-1.987145984491	0.2	0	0	0	50.9985576223116	51.0985244398471	0.09996681753546	0.200051394989714
14818	100	37	0	37	1	2	0	1	1	0	2	157.5	112.5	0.982353136961952	-1.7401254957503	0.2	0	0	0	51.2985594996717	51.3985482600983	0.0999887604266405	0.200035059824586
14893	100	38	0	38	1	2	0	1	1	0	2	67.5	22.5	1.25989734292507	0.648461314489393	0.2	0	0	0	51.5985506493598	51.6985572078265	0.100006558466703	0.200002389261499
14968	100	39	0	39	1	2	0	1	1	0	1	22.5	157.5	1.99551598286239	0.195106307626197	0.2	0	0	0	51.8985812962055	51.9985610356089	0.0999797394033521	0.200024088378996
15043	100	40	0	40	1	2	0	1	1	0	2	67.5	112.5	-2.0166085879646	2.0888914107922	0.2	0	0	0	52.1985880497377	52.298569252016	0.0999812022782862	0.200027014128864
15118	100	41	0	41	1	2	0	1	1	0	2	157.5	112.5	0.0418799351463064	0.261316846328481	0.2	0	0	0	52.4985952910502	52.5985801503994	0.0999848593492061	0.200026039034128
15193	100	42	0	42	1	2	0	1	1	0	2	157.5	112.5	-0.192723977876604	1.88255998460102	0.2	0	0	0	52.7986030196771	52.8985869039316	0.0999838842544705	0.200022869277745
15268	100	43	0	43	1	2	0	1	1	0	2	157.5	22.5	-2.87053329131234	2.24465838722261	0.2	0	0	0	53.0986119676381	53.1985968269873	0.0999848593492061	0.200025063706562
15343.25	100	44	0	44	1	2	0	1	1	0	1	22.5	157.5	0.568311671672134	-2.77473885597481	0.2	0	0	0	53.3986238411162	53.4986021176446	0.0999782765284181	0.200027014128864
15418.25	100	45	0	45	1	2	0	1	1	0	1	112.5	67.5	-2.09572885597919	-0.502333112179101	0.2	0	0	0	53.6986271813512	53.7986071645282	0.099979983177036	0.200025063706562
15493.25	100	46	0	46	1	2	0	1	1	0	1	22.5	157.5	1.26888759239492	1.64369581953112	0.2	0	0	0	53.9986590470653	54.0986183066852	0.0999592596199363	0.200051882537082
15568.25	100	47	0	47	1	2	0	1	1	0	2	157.5	112.5	3.02716058979163	-2.10693236020993	0.2	0	0	0	54.2986455645878	54.3986240848899	0.099978520302102	0.200027257902548
15643.25	100	48	0	48	1	2	0	1	1	0	1	112.5	157.5	-0.0337111321890009	-1.91185341588439	0.2	0	0	0	54.5986620704643	54.6986364459153	0.0999743754509836	0.200037985574454
15718.25	100	49	0	49	1	2	0	1	1	0	1	112.5	67.5	-0.920882323276762	-2.08570203899692	0.2	0	0	0	54.8986361534335	54.9986183310393	0.0999821776058525	0.199999707518145
15793.25	100	50	0	50	1	2	0	1	1	0	2	67.5	112.5	2.89567320156718	-1.16754082622682	0.2	0	0	0	55.1986433945131	55.2986289854161	0.0999855909030885	0.200025063473731
15868.25	100	51	0	51	1	2	0	1	1	0	2	157.5	22.5	1.69020976310228	0.0259393981646188	0.2	0	0	0	55.4986520987004	55.5986518303398	0.0999997316394001	0.20002311328426
15943.25	100	52	0	52	1	2	0	1	1	0	2	67.5	22.5	2.22831408239967	-2.91786426068081	0.2	0	0	0	55.7986868901644	55.8986705306452	0.0999836404807866	0.200035059824586
16018.25	100	53	0	53	1	2	0	1	1	0	2	157.5	112.5	-0.75628276288337	-2.25160672323834	0.2	0	0	0	56.0986946190242	56.198659729911	0.099965110886842	0.200024088378996
16093.25	100	54	0	54	1	2	0	1	1	0	2	67.5	112.5	2.45701780435728	-0.0670463335502096	0.2	0	0	0	56.3987016163301	56.4986833061557	0.099981689825654	0.200041886419058
16168.25	100	55	0	55	1	2	0	1	1	0	1	112.5	67.5	2.84433192790681	1.70435790829434	0.2	0	0	0	56.6987110518385	56.7986934729852	0.0999824211467057	0.200027745682746
16243.25	100	56	0	56	1	2	0	1	1	0	1	22.5	157.5	1.49917967259097	-3.00241093553821	0.2	0	0	0	56.9987039081752	57.0986902303994	0.0999863222241402	0.200010435190052
16318.25	100	57	0	57	1	2	0	1	1	0	1	22.5	67.5	-1.14752314061261	0.824519573923303	0.2	0	0	0	57.2987318730447	57.3987089307047	0.0999770576599985	0.200041642645374
16393.25	100	58	0	58	1	2	0	1	1	0	2	157.5	22.5	-2.79464866576796	-0.90222285676494	0.2	0	0	0	57.598736432381	57.6987137335818	0.0999773012008518	0.200027501676232
16468.25	100	59	0	59	1	2	0	1	1	0	1	22.5	67.5	-2.80661359344595	-3.03343997879996	0.2	0	0	0	57.898740503937	57.9987241444178	0.0999836404807866	0.20002677035518
16543.25	100	60	0	60	1	2	0	1	1	0	1	112.5	157.5	-1.03972537279155	-1.53422295153252	0.2	0	0	0	58.1987462821417	58.2987267530989	0.0999804709572345	0.200022137723863
16618.25	100	61	0	61	1	2	0	1	1	0	2	157.5	22.5	0.175096104172199	-2.25645097284564	0.2	0	0	0	58.4987610813696	58.5987413085531	0.0999802271835506	0.200034328270704
16693.25	100	62	0	62	1	2	0	1	1	0	2	67.5	22.5	-2.83740211086701	1.16745050952271	0.2	0	0	0	58.7987651531585	58.8987502562813	0.09998510312289	0.200023844605312
16768.25	100	63	0	63	1	2	0	1	1	0	1	22.5	157.5	0.690650028182361	2.48728483497342	0.2	0	0	0	59.0987748324405	59.1987557907123	0.0999809582717717	0.200024576159194
16843.25	100	64	0	64	1	2	0	1	1	0	2	157.5	112.5	2.63738961822256	-2.42319335211333	0.2	0	0	0	59.3987840239424	59.4987640071195	0.099979983177036	0.200028233230114
16918.25	100	65	0	65	1	2	0	1	1	0	1	112.5	67.5	-2.63075935980805	1.34217387541581	0.2	0	0	0	59.6987866326235	59.7987556445878	0.0999690119642764	0.200022625504062
16993.25	100	66	0	66	1	2	0	1	1	0	1	112.5	157.5	1.24329614369204	2.69981622690209	0.2	0	0	0	59.9987765634432	60.09876239812	0.0999858346767724	0.200020918855444
17068.25	100	67	0	67	1	2	0	1	1	0	1	112.5	157.5	-2.91589294414628	1.7412082489305	0.2	0	0	0	60.2987884369213	60.3987759782467	0.0999875413253903	0.200026038801298
17143.25	100	68	0	68	1	2	0	1	1	0	2	67.5	112.5	-2.9329029193052	-1.27894630698722	0.2	0	0	0	60.5987949466798	60.6987778556067	0.0999829089269042	0.200018968433142
17218.25	100	69	0	69	1	2	0	1	1	0	2	157.5	22.5	-3.07995090657991	-1.12950675805253	0.2	0	0	0	60.8988014564384	60.9987794891931	0.0999780327547342	0.200023600831628
17293.25	100	70	0	70	1	2	0	1	1	0	1	112.5	67.5	-0.841368639719835	-0.462271684022851	0.2	0	0	0	61.1988006518222	61.2988181817345	0.100017529912293	0.200021162629128
17368.25	100	71	0	71	1	2	0	1	1	0	1	22.5	157.5	-1.75013352732648	2.29156181904171	0.2	0	0	0	61.4988137444016	61.5988227408379	0.100008996436372	0.199995562667027
17443.25	100	72	0	72	1	2	0	1	1	0	2	67.5	112.5	-0.141025216971926	-1.0749520362405	0.2	0	0	0	61.7988453665748	61.898805357283	0.0999599907081574	0.200022625736892
17518.25	100	73	0	73	1	2	0	1	1	0	2	67.5	112.5	0.415587870669303	2.01094054736789	0.2	0	0	0	62.0988601658028	62.1988123545889	0.0999521887861192	0.200054808519781
17593.25	100	74	0	74	1	2	0	1	1	0	2	157.5	22.5	1.01764704555899	-0.442954458062728	0.2	0	0	0	62.3988671631087	62.4988442205358	0.0999770574271679	0.200054808519781
17668.25	100	75	0	75	1	2	0	1	1	3	1	22.5	67.5	2.74177101421448	-2.46688334357897	0.2	0	0	0	62.6988573374692	62.7988085511606	0.0999512136913836	0.200013116933405
17743.25	100	76	0	76	1	2	0	1	1	3	2	67.5	22.5	-2.49490856654669	1.04051486601337	0.2	0	0	0	62.998882133048	63.0988606533501	0.099978520302102	0.200073581887409
17818.25	100	77	0	77	1	2	0	1	1	3	1	22.5	157.5	2.88591943769737	1.35593346916138	0.2	0	0	0	63.2988988826983	63.3988461953122	0.0999473126139492	0.200038229348138
17893.25	100	78	0	78	1	2	0	1	1	1	-1	0	135	1.93726065074786	-0.0882960368346839	0.2	0	0	0	63.5989049046766	63.6988807432353	0.0999758385587484	0.200058709364384
17968.25	100	79	0	79	1	2	0	1	1	3	1	112.5	157.5	-0.453962846160888	-0.394328165224148	0.2	0	0	0	63.8988794754259	63.998857264407	0.0999777889810503	0.199998732190579
18043.25	100	80	0	80	1	2	0	1	1	3	1	112.5	67.5	-2.02544070842227	-0.898093036172546	0.2	1	0.59192097838968	1	64.1988823281135	64.298868406564	0.0999860784504563	0.200025063706562
18118.25	100	81	0	81	1	2	0	1	1	3	2	67.5	112.5	-2.34587144908668	-2.15063766685717	0.2	0	0	0	64.4988898129668	64.5988758914173	0.0999860784504563	0.200021406402811
18193.25	100	82	0	82	1	2	0	1	1	3	2	157.5	22.5	0.818231072838831	-1.94153124777649	0.2	0	0	0	64.798898029374	64.898914340185	0.100016310811043	0.200022137956694
18268.25	100	83	0	83	1	2	0	1	1	0	2	157.5	22.5	0.27249026975543	1.61581704887503	0.2	0	0	0	65.0989364781417	65.1989193870686	0.0999829089269042	0.200022137956694
18343.25	100	84	0	84	1	2	0	1	1	0	2	157.5	112.5	0.253806652209824	-1.32859517895033	0.2	0	0	0	65.3989481078461	65.4989527158905	0.100004608044401	0.200028720777482
18418.25	100	85	0	85	1	2	0	1	1	0	2	67.5	112.5	1.13620558883658	-3.11012310955874	0.2	0	0	0	65.6989519356284	65.7989011988975	0.0999492632690817	0.199999219737947
18493.25	100	86	0	86	1	2	0	1	1	0	1	112.5	67.5	1.54346570462873	1.44281026257313	0.2	0	0	0	65.9989608833566	66.0989408667665	0.0999799834098667	0.20005968445912
18568.25	100	87	0	87	1	2	0	1	1	0	1	112.5	67.5	1.37837654232024	-0.442059167740908	0.2	0	0	0	66.2989391111769	66.3989281153772	0.0999890042003244	0.199998244410381
18643.25	100	88	0	88	1	2	0	1	1	0	1	22.5	67.5	2.12602056914518	1.67718268073737	0.2	0	0	0	66.5989529353101	66.6989324309397	0.0999794956296682	0.200024819932878
18718.25	100	89	0	89	1	2	0	1	1	0	2	67.5	112.5	-1.77069830728565	1.65230922023233	0.2	0	0	0	66.8989709040616	66.9989523501135	0.0999814460519701	0.200038473121822
18793.25	100	90	0	90	1	2	0	1	1	0	2	67.5	112.5	0.0981144091718154	-2.06486134574609	0.2	0	0	0	67.198990335688	67.2989754388109	0.09998510312289	0.200037985574454
18868.25	100	91	0	91	1	2	0	1	1	0	1	22.5	67.5	-0.0663673882589553	1.86407659515031	0.2	0	0	0	67.498984411126	67.5989692704752	0.0999848593492061	0.200008972315118
18943.25	100	92	0	92	1	2	0	1	1	0	2	67.5	22.5	2.07160485879102	-0.877375292206556	0.2	0	0	0	67.7990145704243	67.8989933345001	0.0999787640757859	0.200045299949124
19018.25	100	93	0	93	1	2	0	1	1	0	2	157.5	22.5	1.02690994617461	-2.38712711405466	0.2	0	0	0	68.0990201048553	68.1989854595158	0.0999653546605259	0.20002677035518
19093.25	100	94	0	94	1	2	0	1	1	0	1	112.5	67.5	1.8109262523038	-1.58281628010543	0.2	0	0	0	68.3990295401309	68.4989929443691	0.099963404238224	0.200044080615044
19168.25	100	95	0	95	1	2	0	1	1	0	2	67.5	22.5	-1.94332268163472	2.89908695671072	0.2	0	0	0	68.6990319052711	68.7989945779555	0.0999626726843417	0.20003896090202
19243.25	100	96	0	96	1	2	0	1	1	0	2	67.5	22.5	-2.71483316250899	2.53591769532147	0.2	0	0	0	68.9990176910069	69.099029613426	0.100011922419071	0.200023113051429
19318.25	100	97	0	97	1	2	0	1	1	0	1	112.5	67.5	1.44192053516551	0.46803387859139	0.2	0	0	0	69.2990495569538	69.3990022335202	0.0999526765663177	0.200019943527877
19393.25	100	98	0	98	1	2	0	1	1	0	2	157.5	112.5	-2.16824477432642	-2.65484757800851	0.2	0	0	0	69.5990316858515	69.6990116690286	0.099979983177036	0.200029452331364
19468.25	100	99	0	99	1	2	0	1	1	0	2	157.5	112.5	0.667124377475026	1.99738398192979	0.2	0	0	0	69.8990377078298	69.9990198854357	0.0999821776058525	0.200026038801298
19543.25	100	100	0	100	1	2	0	1	1	0	1	112.5	67.5	0.239591954152602	-2.80493730579169	0.2	0	0	0	70.199045924237	70.299063697923	0.100017773685977	0.200026038801298
19618.25	100	101	0	101	1	2	0	1	1	0	1	22.5	67.5	-2.69270292793922	2.12661737119512	0.2	0	0	0	70.499067062512	70.5990697201341	0.100002657622099	0.200003364589065
19693.25	100	102	0	102	1	2	0	1	1	0	1	112.5	67.5	-0.653270236761157	-1.52892515420208	0.2	0	0	0	70.7990957589354	70.8990589194	0.0999631604645401	0.200026038801298
19768.25	100	103	0	103	1	2	0	1	1	0	1	112.5	157.5	-2.58404171741249	-2.62038298420868	0.2	0	0	0	71.0991010495927	71.1990807889961	0.0999797394033521	0.200042130192742
19843.25	100	104	0	104	1	2	0	1	1	0	2	67.5	22.5	2.81930703555865	1.7512817379409	0.2	0	0	0	71.399104146054	71.4990848605521	0.0999807144980878	0.200023357057944
19918.25	100	105	0	105	1	2	0	1	1	0	1	112.5	157.5	2.75092223020126	2.57299406494957	0.2	0	0	0	71.6990857871715	71.7990740598179	0.0999882726464421	0.200000926619396
19993.25	100	106	0	106	1	2	0	1	1	0	2	67.5	22.5	-0.288010174465216	0.711516727356142	0.2	0	0	0	71.9990952224471	72.0991117772646	0.100016554817557	0.200021162629128
20068.25	100	107	0	107	1	2	0	1	1	0	2	157.5	112.5	1.03101528214908	3.01984747325728	0.2	0	0	0	72.2991292828228	72.3990858602338	0.0999565774109215	0.200017505558208
20143.25	100	108	0	108	1	2	0	1	1	0	2	67.5	22.5	-0.835821163122003	-2.59907843718882	0.2	0	0	0	72.5991443258245	72.6991140691098	0.0999697432853281	0.200058465590701
20218.25	100	109	0	109	1	2	0	1	1	0	2	157.5	112.5	0.828545595988472	2.2925685383772	0.2	0	0	0	72.8991454716306	72.9991283805575	0.0999829089269042	0.200031402520835
20293.25	100	110	0	110	1	2	0	1	1	0	1	112.5	67.5	-1.58402970425923	-2.04530735033318	0.2	0	0	0	73.1991395470686	73.299136353191	0.0999968061223626	0.200011166511104
20368.25	100	111	0	111	1	2	0	1	1	0	1	22.5	67.5	-1.26236677605094	-0.318720770103994	0.2	0	0	0	73.4991633673199	73.5991477391217	0.0999843718018383	0.200027014128864
20443.25	100	112	0	112	1	2	0	1	1	0	2	157.5	22.5	-1.51386661671624	2.47488221381673	0.2	0	0	0	73.7991489095148	73.8991510793567	0.1000021698419	0.20000117039308
20518.25	100	113	0	113	1	2	0	1	1	0	1	112.5	157.5	-2.76743225568041	0.376892881059973	0.2	0	0	0	74.0991537123919	74.1991349146701	0.0999812022782862	0.200002633035183
20593.25	100	114	0	114	1	2	0	1	1	0	1	22.5	157.5	-0.523242431120049	1.16890934354487	0.2	0	0	0	74.399161197478	74.4991519083269	0.0999907108489424	0.200026282807812
20668.25	100	115	0	115	1	2	0	1	1	0	1	22.5	67.5	-0.994613939787329	1.25782090761529	0.2	0	0	0	74.6991986709181	74.7991801169701	0.0999814460519701	0.200046762591228
20743.25	100	116	0	116	1	2	0	1	1	0	2	157.5	22.5	-1.0959636558396	-0.409030049869454	0.2	0	0	0	74.999197866302	75.0991629771888	0.099965110886842	0.200017749331892
20818.25	100	117	0	117	1	2	0	1	1	0	1	22.5	67.5	-1.29787458732967	-1.94757084387703	0.2	0	0	0	75.2991856026929	75.3991680240724	0.0999824213795364	0.200022625504062
20893.25	100	118	0	118	1	2	0	1	1	0	2	67.5	22.5	2.49774446690447	1.40476845270799	0.2	0	0	0	75.5992199068423	75.6992050099652	0.09998510312289	0.200051882769912
20968.25	100	119	0	119	1	2	0	1	1	0	1	22.5	157.5	1.2481551924062	2.21245615707019	0.2	0	0	0	75.8992222717497	75.9992081064265	0.0999858346767724	0.200017261784524
21043.25	100	120	0	120	1	2	0	1	1	0	2	67.5	112.5	0.555423558075064	-0.876498520343018	0.2	0	0	0	76.1992321948055	76.2992175419349	0.0999853471294045	0.200024088378996
21118.25	100	121	0	121	1	2	0	1	1	0	1	112.5	157.5	-0.587360592315082	2.11773105878267	0.2	0	0	0	76.4992438245099	76.5992264896631	0.0999826651532203	0.200026282574981
21193.25	100	122	0	122	1	2	0	1	1	0	2	157.5	112.5	-1.35841346317619	-2.32178231480083	0.2	0	0	0	76.7992508218158	76.8992298298981	0.0999790080823004	0.20002433215268
21268.25	100	123	0	123	1	2	0	1	1	0	2	157.5	22.5	-2.07084879030833	2.6519671180168	0.2	0	0	0	77.0992597697768	77.199236827204	0.0999770574271679	0.200029939878732
21343.25	100	124	0	124	1	2	0	1	1	3	2	67.5	22.5	2.0401063505168	-1.89516225679991	0.2	0	0	0	77.3992653042078	77.4992496760096	0.0999843718018383	0.200028477003798
21418.25	100	125	0	125	1	2	0	1	1	3	2	157.5	112.5	2.45756318944709	0.44469623003899	0.2	0	0	0	77.6992713261861	77.799242044799	0.0999707186128944	0.200021650176495
21493.25	100	126	0	126	1	2	0	1	1	3	1	22.5	157.5	-0.51497850875441	2.20243176976605	0.2	0	0	0	77.9992851503193	78.0992487983312	0.0999636480119079	0.200043105520308
21568.25	100	127	0	127	1	2	0	1	1	3	2	157.5	22.5	3.08413855163801	-2.81214777482505	0.2	0	0	0	78.2992975113448	78.3992599402554	0.0999624289106578	0.20004871301353
22639	100	128	1	0	1	2	90	2	1	3	1	112.5	67.5	2.63564655362985	1.87852195843219	0.2	0	0	0	82.5827174093574	82.6826966612134	0.0999792518559843	-1
22714.25	100	129	1	1	1	2	90	2	1	3	2	67.5	22.5	1.62662991144684	-2.07066999811752	0.2	0	0	0	82.8827717057429	82.982732428005	0.0999607222620398	0.200075044529513
22789.25	100	130	1	2	1	2	90	2	1	3	2	157.5	22.5	-1.2072581477986	-2.86479021176947	0.2	0	0	0	83.1827609050088	83.282726503443	0.0999655984342098	0.200028477003798
22864.25	100	131	1	3	1	2	90	2	1	3	2	67.5	112.5	2.99803260553252	-1.70807493626543	0.2	0	0	0	83.4827693651896	83.5827515425626	0.0999821773730218	0.200042861746624
22939.25	100	132	1	4	1	2	90	2	1	0	2	157.5	22.5	-2.68886383100091	-0.507753778662364	0.2	0	0	0	83.7827488121111	83.8827273324132	0.099978520302102	0.199997269548476
23014.25	100	133	1	5	1	2	90	2	1	0	2	67.5	112.5	0.958661638395732	-2.82689130445533	0.2	0	0	0	84.0827528836671	84.1827382305637	0.0999853468965739	0.20002555125393
23089.25	100	134	1	6	1	2	90	2	1	0	2	157.5	22.5	1.90754360693632	2.68557084455235	0.2	0	0	0	84.3827630504966	84.4827454718761	0.0999824213795364	0.200024819932878
23164.25	100	135	1	7	1	2	90	2	1	0	1	22.5	157.5	2.18418332174943	-1.26369846303756	0.2	0	0	0	84.6827702915762	84.7827505187597	0.0999802271835506	0.200024819700047
23239.25	100	136	1	8	1	2	90	2	1	0	1	22.5	157.5	0.922620678387423	1.8376891320609	0.2	0	0	0	84.9827867974527	85.0827628797852	0.0999760823324323	0.200036278693005
23314.25	100	137	1	9	1	2	90	2	1	0	1	22.5	67.5	1.50424500306976	-2.8533964618182	0.2	0	0	0	85.282789893914	85.3827708524186	0.0999809585046023	0.200027014128864
23389.25	100	138	1	10	1	2	90	2	1	0	2	157.5	112.5	-1.59396930295177	2.1978925868352	0.2	0	0	0	85.5827912837267	85.6827788250521	0.0999875413253903	0.200020431308076
23464.25	100	139	1	11	1	2	90	2	1	0	1	112.5	157.5	1.77550938394228	-1.04764853909774	0.2	0	0	0	85.8828309513628	85.9828131289687	0.0999821776058525	0.200052126310766
23539.25	100	140	1	12	1	2	90	2	1	0	2	157.5	22.5	1.13488621397894	0.0926752568357339	0.2	0	0	0	86.1828406306449	86.2828189071734	0.0999782765284181	0.200027501676232
23614.25	100	141	1	13	1	2	90	2	1	0	2	157.5	112.5	0.464918063088977	0.687837720089711	0.2	0	0	0	86.4828464090824	86.5828276113607	0.0999812022782862	0.200027501909062
23689.25	100	142	1	14	1	2	90	2	1	0	2	67.5	112.5	-1.46467219740661	0.696111754087297	0.2	0	0	0	86.7828285377473	86.8828109591268	0.0999824213795364	0.200000926386565
23764.25	100	143	1	15	1	2	90	2	1	0	1	22.5	67.5	1.0813242680234	-1.28096705160198	0.2	0	0	0	87.0828667427413	87.1828286841046	0.09996194136329	0.200055783614516
23839.25	100	144	1	16	1	2	90	2	1	0	2	67.5	112.5	-2.82970653140382	-1.54570126998213	0.2	0	0	0	87.3828520409297	87.4828561614268	0.100004120497033	0.200023356825113
23914.25	100	145	1	17	1	2	90	2	1	0	2	67.5	22.5	0.0139916963459128	-0.702925442045154	0.2	0	0	0	87.6828734232113	87.7828575510066	0.0999841277953237	0.200017261784524
23989.25	100	146	1	18	1	2	90	2	1	0	1	112.5	67.5	0.989200521476075	0.352827778054391	0.2	0	0	0	87.9828857842367	88.0828650360927	0.0999792518559843	0.200028233230114
24064.25	100	147	1	19	1	2	90	2	1	0	2	157.5	22.5	-1.01470036853221	-3.13809169327209	0.2	0	0	0	88.2828759588301	88.382851797156	0.0999758383259177	0.20001092273742
24139.25	100	148	1	20	1	2	90	2	1	0	2	67.5	112.5	0.627792671198272	-1.71443140263856	0.2	0	0	0	88.5828746664338	88.6828548936173	0.0999802271835506	0.200022869277745
24214.25	100	149	1	21	1	2	90	2	1	0	1	112.5	157.5	-2.7903244242873	-2.70183754199303	0.2	0	0	0	88.8828853210434	88.9828709119465	0.0999855909030885	0.2000304274261
24289.25	100	150	1	22	1	2	90	2	1	0	1	112.5	157.5	-1.03975147083787	2.09249171133862	0.2	0	0	0	89.1829059717711	89.2828854674008	0.0999794956296682	0.200035059824586
24364.25	100	151	1	23	1	2	90	2	1	0	2	67.5	22.5	-0.057096157991928	1.25988538350282	0.2	0	0	0	89.4829095557798	89.5828961217776	0.0999865659978241	0.200024088378996
24439.25	100	152	1	24	1	2	90	2	1	0	2	67.5	112.5	2.06283274122893	2.08188294436177	0.2	0	0	0	89.7829389835242	89.8829250619747	0.0999860784504563	0.200042861746624
24514.25	100	153	1	25	1	2	90	2	1	0	2	157.5	22.5	0.230219932499212	1.06540506297612	0.2	0	0	0	90.082951100776	90.1829091412947	0.0999580405186862	0.200026038801298
24589.25	100	154	1	26	1	2	90	2	1	0	1	22.5	157.5	2.70070289699856	-2.92032364683654	0.2	0	0	0	90.3829305476975	90.48290370428	0.0999731565825641	0.200021406402811
24664.25	100	155	1	27	1	2	90	2	1	0	2	67.5	22.5	-0.796478316548439	-1.08510407979478	0.2	0	0	0	90.6829699717928	90.7829194788355	0.0999495070427656	0.200066267512739
24739.25	100	156	1	28	1	2	90	2	1	0	1	112.5	67.5	2.4641463087981	2.39986016817702	0.2	0	0	0	90.9829713613726	91.082949637901	0.0999782765284181	0.200051882537082
24814.25	100	157	1	29	1	2	90	2	1	0	1	112.5	157.5	0.514518851803754	-0.210091359513964	0.2	0	0	0	91.28297372628	91.3829561476596	0.0999824213795364	0.200024088378996
24889.25	100	158	1	30	1	2	90	2	1	0	1	112.5	157.5	-0.186672141879843	-1.11891445320984	0.2	0	0	0	91.5829843808897	91.6829660707153	0.099981689825654	0.200028233230114
24964.25	100	159	1	31	1	2	90	2	1	0	2	67.5	22.5	-1.99461255062445	-2.14848047062179	0.2	0	0	0	91.8829935723916	91.9829538071062	0.099960234714672	0.200027501676232
25039.25	100	160	1	32	1	2	90	2	1	0	2	67.5	112.5	2.0508358694432	2.59420098591307	0.2	0	0	0	92.1829991070554	92.2829803093337	0.0999812022782862	0.200045299949124
25114.25	100	161	1	33	1	2	90	2	1	0	1	22.5	157.5	1.85505990521898	-2.55171839554906	0.2	0	0	0	92.4829902567435	92.5829639008734	0.0999736441299319	0.200009947409853
25189.25	100	162	1	34	1	2	90	2	1	0	2	67.5	22.5	-0.707021873851066	-0.874156974119133	0.2	0	0	0	92.782991158776	92.882971141953	0.099979983177036	0.200027257902548
25264.25	100	163	1	35	1	2	90	2	1	0	2	157.5	112.5	-1.12302721871583	-1.15565977756224	0.2	0	0	0	93.0829937674571	93.1829803336877	0.0999865662306547	0.200022625504062
25339.25	100	164	1	36	1	2	90	2	1	3	2	67.5	112.5	-1.42071529862586	0.862500233465746	0.2	0	0	0	93.3830034467392	93.4829961080104	0.0999926612712443	0.200023113051429
25414.25	100	165	1	37	1	2	90	2	1	3	2	157.5	112.5	-1.00431881622114	2.58523085946879	0.2	0	0	0	93.68301190692	93.7829994482454	0.0999875413253903	0.20001579890959
25489.25	100	166	1	38	1	2	90	2	1	3	2	67.5	22.5	-2.56989339182163	1.50729042133321	0.2	0	0	0	93.9830296318978	94.0830049826764	0.0999753507785499	0.200030183652416
25564.25	100	167	1	39	1	2	90	2	1	2	-1	135	90	2.22790459176942	2.92689865907914	0.2	0	0	0	94.2830254139844	94.3830090544652	0.0999836404807866	0.200020431308076
25639.25	100	168	1	40	1	2	90	2	1	3	1	112.5	67.5	-0.400586516426702	-1.35163747689868	0.2	0	0	0	94.5830380190164	94.6830194650684	0.0999814460519701	0.200028964551166
25714.25	100	169	1	41	1	2	90	2	1	3	1	112.5	157.5	-2.02575506981146	1.54550843019797	0.2	0	0	0	94.8830728107132	94.9830547443125	0.0999819335993379	0.200053345644847
25789.25	100	170	1	42	1	2	90	2	1	3	1	22.5	157.5	1.14103789107392	1.33748927903251	0.2	0	0	0	95.1830824897625	95.2830658864696	0.0999833967071027	0.200027745449916
25864.25	100	171	1	43	1	2	90	2	1	3	2	157.5	22.5	-2.03950325916311	-2.80755629978549	0.2	0	0	0	95.4830892432947	95.583056792384	0.0999675490893424	0.200023356825113
25939.25	100	172	1	44	1	2	90	2	1	0	1	22.5	67.5	2.38561945411918	0.464124405859066	0.2	0	0	0	95.7830933150835	95.8830759802368	0.0999826651532203	0.20003652269952
26014.25	100	173	1	45	1	2	90	2	1	0	2	157.5	22.5	-3.11405494103162	2.37094397497332	0.2	0	0	0	96.083103481913	96.1830893165898	0.0999858346767724	0.200027501676232
26089.25	100	174	1	46	1	2	90	2	1	0	1	22.5	67.5	0.334415549417181	-2.95129209067326	0.2	0	0	0	96.3831102354452	96.4830936319195	0.099983396474272	0.200020918855444
26164.25	100	175	1	47	1	2	90	2	1	0	2	157.5	22.5	0.882938479686025	-1.71304133565292	0.2	0	0	0	96.6831199147273	96.7830977034755	0.0999777887482196	0.200026282807812
26239.25	100	176	1	48	1	2	90	2	1	0	1	22.5	67.5	-0.988897812382978	0.22387304629561	0.2	0	0	0	96.9831066757906	97.0830876342952	0.0999809585046023	0.200008972315118
26314.25	100	177	1	49	1	2	90	2	1	0	1	112.5	67.5	-1.92812224108383	0.678712922002072	0.2	0	0	0	97.2831114789005	97.3830939000472	0.0999824211467057	0.200023844605312
26389.25	100	178	1	50	1	2	90	2	1	0	2	67.5	112.5	2.50892795836921	0.279755248758722	0.2	0	0	0	97.5831445637159	97.6831291792914	0.0999846155755222	0.200050663668662
26464.25	100	179	1	51	1	2	90	2	1	0	1	112.5	67.5	0.577565194083486	2.40733443988138	0.2	0	0	0	97.8831469286233	97.9831400776748	0.0999931490514427	0.200017749331892
26539.25	100	180	1	52	1	2	90	2	1	0	1	112.5	157.5	1.2269227151765	-0.758714821866165	0.2	0	0	0	98.1831573394593	98.2831285453867	0.0999712059274316	0.200017261784524
26614.25	100	181	1	53	1	2	90	2	1	0	2	157.5	22.5	-2.09818375681405	0.995505066131074	0.2	0	0	0	98.4831701882649	98.5831460265908	0.0999758383259177	0.200041642878205
26689.25	100	182	1	54	1	2	90	2	1	0	1	22.5	157.5	-3.08142045292842	0.281178268134894	0.2	0	0	0	98.7831679207738	98.8831415649038	0.0999736441299319	0.20002189418301
26764.25	100	183	1	55	1	2	90	2	1	0	2	157.5	112.5	2.55758393479518	2.01928618255164	0.2	0	0	0	99.083161264658	99.1831419793889	0.0999807147309184	0.200019699754193
26839.25	100	184	1	56	1	2	90	2	1	0	2	157.5	112.5	-1.95985265129769	-0.685577967096745	0.2	0	0	0	99.3831636295654	99.4831467824988	0.0999831529334188	0.200021650176495
26914.25	100	185	1	57	1	2	90	2	1	0	2	67.5	22.5	-2.79661524256893	2.63222749110145	0.2	0	0	0	99.6831750154961	99.7831586559769	0.0999836404807866	0.200028232997283
26989.25	100	186	1	58	1	2	90	2	1	0	2	67.5	112.5	1.7424837128032	2.18294441727683	0.2	0	0	0	99.9831846947782	100.083168579033	0.0999838842544705	0.200026038801298
27064.25	100	187	1	59	1	2	90	2	1	3	2	157.5	22.5	0.417717936384405	1.40181398102927	0.2	0	0	0	100.283192911185	100.383170212619	0.0999773014336824	0.20002433215268
27139.25	100	188	1	60	1	2	90	2	1	3	1	112.5	157.5	-3.0338456773412	2.61281535978231	0.2	0	0	0	100.583200152265	100.683180623222	0.0999804709572345	0.200029939645901
27214.25	100	189	1	61	1	2	90	2	1	3	1	22.5	157.5	0.361578544526051	1.02371660631148	0.2	0	0	0	100.883218365023	100.983216877794	0.0999985127709806	0.20003774180077
27289.25	100	190	1	62	1	2	90	2	1	1	-1	90	135	0.0554652482410578	-1.29560158869595	0.2	0	0	0	101.183245842345	101.283225337975	0.0999794956296682	0.200028964551166
27364.25	100	191	1	63	1	2	90	2	1	3	1	22.5	67.5	2.65828761291833	2.88584771137955	0.2	0	0	0	101.483232115861	101.583207222866	0.099975107004866	0.200006777886301
27439.25	100	192	1	64	1	2	90	2	1	3	2	157.5	112.5	0.566750291751686	-0.930888762322516	0.2	1	0.492165056057274	1	101.783236674964	101.883212757297	0.0999760823324323	0.200029452098534
27514.25	100	193	1	65	1	2	90	2	1	3	2	67.5	22.5	-2.19526233659	-0.962816610095684	0.2	0	0	0	102.083238308551	102.183221705025	0.099983396474272	0.20002555125393
27589.25	100	194	1	66	1	2	90	2	1	3	2	67.5	112.5	0.786341873940571	0.798408107565075	0.2	0	0	0	102.383264566772	102.483232359635	0.0999677928630263	0.200042861746624
27664.25	100	195	1	67	1	2	90	2	1	0	2	157.5	112.5	1.88778992451022	0.0023554568842834	0.2	0	0	0	102.683284486178	102.783238381613	0.0999538954347372	0.200052126543596
27739.25	100	196	1	68	1	2	90	2	1	0	1	112.5	157.5	2.93804812910262	3.11917186736837	0.2	0	0	0	102.983267833944	103.083250255324	0.0999824213795364	0.200029452331364
27814.25	100	197	1	69	1	2	90	2	1	0	1	112.5	67.5	-1.18611745595492	-0.538024394858321	0.2	0	0	0	103.283273124602	103.38325676485	0.0999836402479559	0.200022869277745
27889.25	100	198	1	70	1	2	90	2	1	0	2	157.5	22.5	0.48488737134477	2.71983562287797	0.2	0	0	0	103.583280609455	103.683262787061	0.0999821776058525	0.200023844605312
27964.25	100	199	1	71	1	2	90	2	1	0	2	157.5	112.5	-2.84198724674025	-0.309966025191619	0.2	0	0	0	103.883289069636	103.983300992055	0.100011922419071	0.200026282574981
28039.25	100	200	1	72	1	2	90	2	1	0	2	67.5	22.5	2.85851918340493	-1.7255228109116	0.2	0	0	0	104.183325080434	104.283305063611	0.099979983177036	0.200024088378996
28114.25	100	201	1	73	1	2	90	2	1	0	1	112.5	157.5	-2.24398963901001	0.223825685749743	0.2	0	0	0	104.483331833966	104.583314742893	0.0999829089269042	0.20002677035518
28189.25	100	202	1	74	1	2	90	2	1	0	1	22.5	67.5	0.960346717871771	1.08955197151922	0.2	0	0	0	104.783342244569	104.883302479284	0.099960234714672	0.200027501676232
28264.25	100	203	1	75	1	2	90	2	1	0	2	157.5	112.5	2.23653701397986	-1.2542169105118	0.2	0	0	0	105.083348998101	105.183335320326	0.0999863222241402	0.200046518817544
28339.25	100	204	1	76	1	2	90	2	1	0	1	112.5	67.5	-0.127552719923638	0.546296992043963	0.2	0	0	0	105.383378669852	105.483313060598	0.099934390746057	0.200043349526823
28414.25	100	205	1	77	1	2	90	2	1	0	2	157.5	22.5	3.00219944695699	-0.395718078327697	0.2	0	0	0	105.683344950899	105.78333102935	0.0999860784504563	0.200031890301034
28489.25	100	206	1	78	1	2	90	2	1	0	2	157.5	112.5	-0.583291859307579	-3.00738905186407	0.2	0	0	0	105.983346584486	106.083329249639	0.0999826651532203	0.200015555135906
28564.25	100	207	1	79	1	2	90	2	1	0	1	22.5	157.5	0.431079574648987	-2.73383023304214	0.2	0	0	0	106.283349193167	106.383367454633	0.100018261466175	0.200019943527877
28639.25	100	208	1	80	1	2	90	2	1	0	1	112.5	157.5	2.21660353236367	-0.754857921874482	0.2	0	0	0	106.583389348583	106.683350558626	0.0999612100422382	0.200021893950179
28714.25	100	209	1	81	1	2	90	2	1	0	2	67.5	22.5	-3.03917794723116	1.26085942267902	0.2	0	0	0	106.883366113529	106.983348778682	0.0999826651532203	0.200015554903075
28789.25	100	210	1	82	1	2	90	2	1	0	1	22.5	67.5	2.28194491057322	-2.14693021258887	0.2	0	0	0	107.183410901343	107.283386252355	0.0999753510113806	0.20006212266162
28864.25	100	211	1	83	1	2	90	2	1	0	2	157.5	112.5	2.17304461729516	2.90636189063871	0.2	0	0	0	107.483389616711	107.583368868567	0.0999792518559843	0.200003364356235
28939.25	100	212	1	84	1	2	90	2	1	0	1	112.5	67.5	-2.10670961258858	-0.86079254330956	0.2	0	0	0	107.783424164634	107.883402197389	0.0999780327547342	0.200055296067148
29014.25	100	213	1	85	1	2	90	2	1	0	2	157.5	112.5	1.24178215461295	-2.46426782442017	0.2	0	0	0	108.083441158058	108.183411876671	0.0999707186128944	0.20003896066919
29089.25	100	214	1	86	1	2	90	2	1	0	1	112.5	67.5	-1.40821578481509	-1.96857724704289	0.2	0	0	0	108.383435233496	108.483421799727	0.0999865662306547	0.200023356825113
29164.25	100	215	1	87	1	2	90	2	1	0	1	22.5	157.5	-1.9358438884302	2.64239981411532	0.2	0	0	0	108.683421263238	108.783401002642	0.0999797394033521	0.199999463511631
29239.25	100	216	1	88	1	2	90	2	1	0	1	112.5	67.5	0.0684042984838373	2.16870520512143	0.2	0	0	0	108.983425822575	109.08343408769	0.100008265115321	0.200024819932878
29314.25	100	217	1	89	1	2	90	2	1	0	2	157.5	112.5	1.32775388089297	1.01841619889946	0.2	0	0	0	109.283439890249	109.383428650675	0.0999887604266405	0.200005802558735
29389.25	100	218	1	90	1	2	90	2	1	0	2	67.5	22.5	-0.750057141173202	-2.773314709142	0.2	0	0	0	109.583450301085	109.683432478458	0.0999821773730218	0.200021650409326
29464.25	100	219	1	91	1	2	90	2	1	0	2	67.5	112.5	-0.997726723525497	0.89299792175799	0.2	0	0	0	109.88347802218	109.983459468232	0.0999814460519701	0.200045543722808
29539.25	100	220	1	92	1	2	90	2	1	0	1	22.5	67.5	-1.73270178402877	-2.9971246755661	0.2	0	0	0	110.183484531939	110.283444522647	0.0999599907081574	0.200025063706562
29614.25	100	221	1	93	1	2	90	2	1	0	1	112.5	67.5	0.467662320793381	-1.6660748610212	0.2	0	0	0	110.483471293002	110.583451276179	0.099979983177036	0.20002677035518
29689.25	100	222	1	94	1	2	90	2	1	0	1	22.5	157.5	0.522602885081689	-2.71728913169303	0.2	0	0	0	110.783484141808	110.883486555424	0.100002413615584	0.2000328656286
29764.25	100	223	1	95	1	2	90	2	1	0	1	22.5	157.5	2.31129323081774	1.07327906800518	0.2	0	0	0	111.083491626661	111.183474779595	0.0999831529334188	0.200005071237683
29839.25	100	224	1	96	1	2	90	2	1	0	1	112.5	157.5	2.10098756350984	2.00557761617008	0.2	0	0	0	111.383502281271	111.483476412948	0.0999741316772997	0.200027501676232
29914.25	100	225	1	97	1	2	90	2	1	0	2	157.5	112.5	-3.09071798973875	-1.49960782537488	0.2	0	0	0	111.683510009898	111.783486823784	0.0999768138863146	0.200033596949652
29989.25	100	226	1	98	1	2	90	2	1	0	1	112.5	67.5	-2.21984738809581	3.11636806119058	0.2	0	0	0	111.983512131032	112.083496502833	0.0999843718018383	0.200025307247415
30064.25	100	227	1	99	1	2	90	2	1	0	2	157.5	22.5	-2.31360165585178	0.266014313134492	0.2	0	0	0	112.283524248516	112.383509107865	0.0999848593492061	0.200027745682746
30139.25	100	228	1	100	1	2	90	2	1	0	1	112.5	157.5	-1.43272840090535	2.19611060911539	0.2	0	0	0	112.583525394322	112.683532928117	0.100007533794269	0.200016286456957
30214.25	100	229	1	101	1	2	90	2	1	0	1	22.5	157.5	1.52203495348088	-1.90567631843287	0.2	0	0	0	112.883560186019	112.983541875845	0.099981689825654	0.200027257902548
30289.25	100	230	1	102	1	2	90	2	1	0	1	22.5	157.5	-0.0673396681034766	1.86168317411799	0.2	0	0	0	113.1835686462	113.283550580032	0.0999819338321686	0.20002677035518
30364.25	100	231	1	103	1	2	90	2	1	0	2	67.5	112.5	1.4469572010941	0.821689385576266	0.2	0	0	0	113.483578325482	113.583541973494	0.0999636480119079	0.200027745449916
30439.25	100	232	1	104	1	2	90	2	1	0	1	112.5	67.5	2.14427015950708	-2.65113980190312	0.2	0	0	0	113.783577277092	113.883562624222	0.0999853471294045	0.20003530359827
30514.25	100	233	1	105	1	2	90	2	1	0	1	22.5	157.5	-0.818821525379376	1.65916312867037	0.2	0	0	0	114.083589394344	114.183569377754	0.0999799834098667	0.200026770122349
30589.25	100	234	1	106	1	2	90	2	1	3	2	67.5	112.5	-3.11992093243559	1.65964376413426	0.2	0	0	0	114.383595904103	114.483576618833	0.0999807147309184	0.200026526348665
30664.25	100	235	1	107	1	2	90	2	1	3	1	112.5	157.5	-1.80199860693332	-0.766743048615898	0.2	0	0	0	114.68360412051	114.783589467639	0.0999853471294045	0.200027501676232
30739.25	100	236	1	108	1	2	90	2	1	3	1	112.5	67.5	0.734841164702744	-1.47272351782288	0.2	0	0	0	114.983609167393	115.083584761946	0.0999755945522338	0.200019699754193
30814.25	100	237	1	109	1	2	90	2	1	1	-1	90	45	0.458562594201667	-2.67065917885492	0.2	0	0	0	115.283605193254	115.383600536501	0.0999953432474285	0.200020431308076
30889.25	100	238	1	110	1	2	90	2	1	3	2	157.5	112.5	-1.8591273361577	0.6454689074949	0.2	0	0	0	115.583621942904	115.683600463439	0.0999785205349326	0.200021406402811
30964.25	100	239	1	111	1	2	90	2	1	3	1	22.5	67.5	1.59826175228938	-1.26244850635679	0.2	1	0.492139456095174	1	115.883621382294	115.983610142721	0.0999887604266405	0.200020918855444
31039.25	100	240	1	112	1	2	90	2	1	3	2	157.5	22.5	-2.95959079084117	-1.67352359338844	0.2	0	0	0	116.183661050163	116.283630793216	0.0999697430524975	0.200050907442346
31114.25	100	241	1	113	1	2	90	2	1	3	2	67.5	22.5	-2.1692022475461	-0.321222503598378	0.2	0	0	0	116.483650005423	116.583636815427	0.0999868100043386	0.200019212206826
31189.25	100	242	1	114	1	2	90	2	1	0	2	67.5	22.5	0.115653939667068	-2.3341986867549	0.2	0	0	0	116.783666023752	116.883630159311	0.0999641355592757	0.20002920832485
31264.25	100	243	1	115	1	2	90	2	1	0	1	112.5	157.5	0.656964815151095	1.00340749528424	0.2	0	0	0	117.083670583088	117.18365202914	0.0999814460519701	0.200040423776954
31339.25	100	244	1	116	1	2	90	2	1	0	2	67.5	112.5	2.62206472987472	-1.10533737566276	0.2	0	0	0	117.383677824168	117.48366292729	0.09998510312289	0.200025795027614
31414.25	100	245	1	117	1	2	90	2	1	0	1	112.5	67.5	-0.728716192793464	-1.29533497560119	0.2	0	0	0	117.683689453872	117.783669680823	0.09998022695072	0.200026526581496
31489.25	100	246	1	118	1	2	90	2	1	0	1	22.5	157.5	1.96513678505069	-0.423177022892533	0.2	0	0	0	117.983700352255	118.083682529628	0.0999821773730218	0.200030671432614
31564.25	100	247	1	119	1	2	90	2	1	0	2	67.5	22.5	-0.174161306570237	-0.412563583938851	0.2	0	0	0	118.283703692257	118.383672704222	0.0999690119642764	0.200021162629128
31639.25	100	248	1	120	1	2	90	2	1	0	2	67.5	112.5	-1.2434283266109	-0.408431749343142	0.2	0	0	0	118.58369020978	118.683670436731	0.09998022695072	0.200017505558208
31714.25	100	249	1	121	1	2	90	2	1	0	1	22.5	67.5	2.84420412114622	-1.54619537476534	0.2	0	0	0	118.883699157508	118.983683773084	0.0999846155755222	0.200028720777482
31789.25	100	250	1	122	1	2	90	2	1	0	2	157.5	22.5	-0.0267646234496977	1.59018035951281	0.2	0	0	0	119.183709568111	119.283691014163	0.0999814460519701	0.200025795027614
31864.25	100	251	1	123	1	2	90	2	1	0	2	67.5	112.5	1.30275506820826	2.48628152603752	0.2	0	0	0	119.483715590322	119.583700205898	0.0999846155755222	0.200024576159194
31939.25	100	252	1	124	1	2	90	2	1	0	1	22.5	67.5	-1.30458021728955	0.410852560493324	0.2	0	0	0	119.783725757152	119.883709641406	0.0999838842544705	0.20002555125393
32014.25	100	253	1	125	1	2	90	2	1	0	1	112.5	157.5	2.41678621893098	1.39236384725046	0.2	0	0	0	120.08373470488	120.183715419611	0.0999807147309184	0.200025063473731
32089.25	100	254	1	126	1	2	90	2	1	0	2	67.5	22.5	-0.146820925774936	1.94996450735628	0.2	0	0	0	120.383738776669	120.483725098893	0.0999863222241402	0.200023357057944
32164.25	100	255	1	127	1	2	90	2	1	0	1	22.5	67.5	-2.84722561841992	-1.34545176532526	0.2	0	0	0	120.683748943498	120.783748675138	0.0999997316394001	0.200023844605312
32239.25	100	256	1	128	1	2	90	2	1	0	1	22.5	67.5	-2.71875034016465	2.32000671722277	0.2	0	0	0	120.983774957946	121.083760792622	0.0999858346767724	0.200026282807812
32314.25	100	257	1	129	1	2	90	2	1	0	2	67.5	22.5	-0.925381235317829	0.435973539089678	0.2	0	0	0	121.283773178002	121.383748772787	0.0999755947850645	0.200012385379523
32389.25	100	258	1	130	1	2	90	2	1	0	2	157.5	22.5	-0.454755971190246	0.850655615656378	0.2	0	0	0	121.583776762011	121.683756013867	0.0999792518559843	0.200027989223599
32464.25	100	259	1	131	1	2	90	2	1	0	1	22.5	67.5	-2.44262579926771	0.333577080492249	0.2	0	0	0	121.883784247097	121.983761304524	0.0999770574271679	0.200028233230114
32539.25	100	260	1	132	1	2	90	2	1	3	1	22.5	157.5	2.19232630343611	2.41612470608167	0.2	0	0	0	122.183785636676	122.283770252485	0.0999846158083528	0.20002433215268
32614.25	100	261	1	133	1	2	90	2	1	3	1	22.5	67.5	0.356501478657287	-0.050502534745724	0.2	0	0	0	122.483794828411	122.583781150635	0.0999863222241402	0.200024575926363
32689.25	100	262	1	134	1	2	90	2	1	3	1	112.5	157.5	2.81423132812348	1.31771225262049	0.2	0	0	0	122.783804019913	122.883783515543	0.0999794956296682	0.200022869277745
32764.25	100	263	1	135	1	2	90	2	1	3	2	157.5	112.5	0.948276791182803	-1.51231372824632	0.2	0	0	0	123.083804678405	123.183791000629	0.0999863222241402	0.200021162861958
33697.75	100	264	2	0	2	2	90	2	2	3	2	157.5	112.5	-3.13801668734018	-2.72217310015658	0.1	0	0	0	126.817246896913	126.91722078505	0.0999738881364465	-1
33785.25	100	265	2	1	2	2	90	2	2	3	1	22.5	157.5	-2.70231328698968	-1.83397093034369	0.25	0	0	0	127.167271680199	127.267231914913	0.099960234714672	0.250050895148888
33877	100	266	2	2	2	2	90	2	2	3	2	67.5	22.5	-1.5366954206216	-0.680899471983417	0.266666666666667	0	0	0	127.53392744856	127.63391401479	0.0999865662306547	0.266695533646271
33972.75	100	267	2	3	2	2	90	2	2	3	1	22.5	67.5	-1.60905765792005	1.09784701401937	0.283333333333333	0	0	0	127.917278324021	128.017265621573	0.0999872975517064	0.283364309230819
34072.75	100	268	2	4	2	2	90	2	2	0	2	157.5	112.5	-2.40763652463136	1.32832366648971	0.3	0	0	0	128.317294317996	128.417272838298	0.099978520302102	0.300028696423396
34122.75	100	269	2	5	2	2	90	2	2	0	2	67.5	22.5	3.13203276050427	2.96336042175102	0.1	0	0	0	128.517297682585	128.61727815331	0.0999804707244039	0.100024844286963
34193.5	100	270	2	6	2	2	90	2	2	0	2	67.5	22.5	1.03001661539505	0.450544831463953	0.183333333333333	0	0	0	128.800666624215	128.900630028453	0.099963404238224	0.183388470904902
34272.75	100	271	2	7	2	2	90	2	2	0	1	112.5	67.5	1.31002902378838	-0.920307460799282	0.216666666666667	0	0	0	129.117358976277	129.217302144272	0.0999431679956615	0.216728947823867
34335.25	100	272	2	8	2	2	90	2	2	0	1	112.5	157.5	1.69238899405187	1.1941429493218	0.15	0	0	0	129.36734501808	129.467309641419	0.0999646233394742	0.150042873807251
34427	100	273	2	9	2	2	90	2	2	0	1	22.5	157.5	-3.02280273968436	-0.738455512735536	0.266666666666667	0	0	0	129.734018828487	129.833987352671	0.099968524184078	0.266709187068045
34510.25	100	274	2	10	2	2	90	2	2	0	2	67.5	112.5	-2.45880258812306	-0.348619127547654	0.233333333333333	0	0	0	130.067343140952	130.167325074552	0.0999819335993379	0.233355788281187
34589.5	100	275	2	11	2	2	90	2	2	0	1	112.5	157.5	-2.83680376710028	1.79776650495812	0.216666666666667	0	0	0	130.38401647564	130.484022302786	0.100005827145651	0.21669140108861
34689.5	100	276	2	12	2	2	90	2	2	0	1	112.5	67.5	2.72341439089945	2.20407189876142	0.3	0	0	0	130.784047341906	130.884014890995	0.0999675490893424	0.300025039119646
34739.5	100	277	2	13	2	2	90	2	2	0	1	22.5	157.5	2.14145329827237	0.666069302864952	0.1	0	0	0	130.984051194275	131.084018986905	0.0999677926301956	0.100036303279921
34814.5	100	278	2	14	2	2	90	2	2	0	2	157.5	112.5	1.6446083998821	-2.35226128521238	0.2	0	0	0	131.284060873324	131.384041344281	0.0999804709572345	0.200041886419058
34885.25	100	279	2	15	2	2	90	2	2	0	1	22.5	157.5	0.147616763154273	0.885768837911792	0.183333333333333	0	0	0	131.567405190319	131.667382491753	0.0999773014336824	0.183363846037537
34956	100	280	2	16	2	2	90	2	2	0	2	67.5	112.5	2.88884997027987	1.88824599716186	0.183333333333333	0	0	0	131.850741461618	131.950716081075	0.0999746194574982	0.183358969865367
35014.5	100	281	2	17	2	2	90	2	2	0	2	67.5	22.5	1.13929796784711	1.93076845485241	0.133333333333333	0	0	0	132.084076769883	132.184057240607	0.0999804707244039	0.133360688807443
35110.25	100	282	2	18	2	2	90	2	2	0	1	112.5	67.5	-2.8180691362208	-0.387482604265004	0.283333333333333	0	0	0	132.467398144305	132.567410554271	0.100012409966439	0.283340903697535
35160.25	100	283	2	19	2	2	90	2	2	0	1	112.5	157.5	0.0268421048143259	0.131225886460157	0.1	0	0	0	132.667429059278	132.767414162634	0.0999851033557206	0.100018505007029
35252	100	284	2	20	2	2	90	2	2	0	2	67.5	112.5	-0.68273022316812	-0.807213007120709	0.266666666666667	0	0	0	133.034096530639	133.134085778613	0.0999892479740083	0.266682368004695
35343.5	100	285	2	21	2	2	90	2	2	0	1	22.5	67.5	-1.74831770075445	-3.13872817031107	0.266666666666667	0	0	0	133.400777411414	133.500759588787	0.0999821773730218	0.266691632801667
35418.5	100	286	2	22	2	2	90	2	2	0	1	112.5	157.5	3.02996787957188	-0.128993673193883	0.2	0	0	0	133.70079269819	133.800774388015	0.099981689825654	0.200033109402284
35485.25	100	287	2	23	2	2	90	2	2	0	2	157.5	22.5	-0.241219016274187	-0.552464777763759	0.166666666666667	0	0	0	133.967445809161	134.067451879848	0.100006070686504	0.16667142114602
35543.5	100	288	2	24	2	2	90	2	2	3	1	22.5	157.5	1.69600668744071	-1.53490172246291	0.133333333333333	0	0	0	134.200800622115	134.300765976775	0.0999653546605259	0.133348742267117
35627	100	289	2	25	2	2	90	2	2	3	1	22.5	67.5	-2.56505864503734	1.26876725710797	0.233333333333333	0	0	0	134.534132248722	134.634110769024	0.099978520302102	0.233366271946579
35697.75	100	290	2	26	2	2	90	2	2	3	2	157.5	22.5	-1.50628332267303	-1.79779362419697	0.183333333333333	0	0	0	134.817465106491	134.917444602121	0.0999794956296682	0.183354337466881
35772.75	100	291	2	27	2	2	90	2	2	2	-1	45	90	-2.91028728103114	0.941558231136918	0.2	0	0	0	135.117467715405	135.217480125371	0.100012409966439	0.20002311328426
35839.5	100	292	2	28	2	2	90	2	2	3	1	112.5	67.5	1.27137767917854	-2.82503357319927	0.166666666666667	0	0	0	135.384172026301	135.484136893181	0.0999648668803275	0.166691900929436
35927	100	293	2	29	2	2	90	2	2	3	1	112.5	157.5	1.77769683832585	0.185822054711798	0.25	0	0	0	135.734179011313	135.834149729926	0.0999707186128944	0.250042118132114
36027	100	294	2	30	2	2	90	2	2	3	2	67.5	112.5	-0.844261284899161	-1.23198732882281	0.3	0	0	0	136.134191348217	136.234151582699	0.0999602344818413	0.300041618291289
36077	100	295	2	31	2	2	90	2	2	3	2	157.5	112.5	2.44337020229756	2.86382672744355	0.1	0	0	0	136.334172282135	136.434154215967	0.0999819338321686	0.100020699435845
36177	100	296	2	32	2	2	90	2	2	0	1	22.5	157.5	-0.0831334029273516	-0.990894450031661	0.3	0	0	0	136.734195346711	136.834179474739	0.0999841280281544	0.300041130743921
36264.5	100	297	2	33	2	2	90	2	2	0	1	22.5	157.5	0.700175482558643	-0.251432133732139	0.25	0	0	0	137.08419623645	137.184181827353	0.0999855909030885	0.250016761710867
36352	100	298	2	34	2	2	90	2	2	0	2	67.5	22.5	-1.91657180491631	-2.35892757551396	0.25	0	0	0	137.43421297404	137.534192225896	0.0999792518559843	0.250031146686524
36427	100	299	2	35	2	2	90	2	2	0	1	22.5	67.5	-2.65193797001148	2.32947256220812	0.2	0	0	0	137.73423264944	137.834217021242	0.0999843718018383	0.200040423544124
36493.5	100	300	2	36	2	2	90	2	2	0	2	67.5	22.5	2.36533308920937	-0.693837746030376	0.166666666666667	0	0	0	138.000900876475	138.100880615879	0.0999797394033521	0.166683855233714
36543.5	100	301	2	37	2	2	90	2	2	0	2	67.5	112.5	2.79278106116127	0.64187382254236	0.1	0	0	0	138.200900827767	138.300888612866	0.0999877850990742	0.100020211888477
36631	100	302	2	38	2	2	90	2	2	0	2	67.5	112.5	-2.22049202157272	1.7668718862534	0.25	0	0	0	138.550912932958	138.650896817213	0.0999838842544705	0.250024320092052
36702	100	303	2	39	2	2	90	2	2	0	1	22.5	67.5	-2.17462007995366	-0.639555943419189	0.183333333333333	0	0	0	138.834254811751	138.934215046465	0.099960234714672	0.183357994537801
36752	100	304	2	40	2	2	90	2	2	0	2	157.5	22.5	-0.577651690586865	-3.07044843671191	0.1	0	0	0	139.034238183871	139.134220849024	0.0999826651532203	0.100023137405515
36810.25	100	305	2	41	2	2	90	2	2	0	2	67.5	112.5	1.63160578524902	2.15366781027305	0.133333333333333	0	0	0	139.267608844675	139.367585170548	0.0999763258732855	0.133387995650992
36885.25	100	306	2	42	2	2	90	2	2	0	1	22.5	157.5	-0.0500146126963488	-1.84398434951368	0.2	0	0	0	139.567618767731	139.667579733767	0.0999609660357237	0.200033597182482
36964.5	100	307	2	43	2	2	90	2	2	0	2	157.5	22.5	2.80518927829533	3.06511423802158	0.216666666666667	0	0	0	139.88429039577	139.984274280025	0.0999838842544705	0.216710662003607
37060.25	100	308	2	44	2	2	90	2	2	0	2	157.5	22.5	0.963668082591148	-2.06935270217794	0.283333333333333	0	0	0	140.267638101708	140.367599799298	0.099961697589606	0.283363821683452
37122.75	100	309	2	45	2	2	90	2	2	0	1	22.5	67.5	-0.212698298855011	-2.49288764941736	0.15	0	0	0	140.517639016034	140.617619242985	0.09998022695072	0.150039216736332
37218.75	100	310	2	46	2	2	90	2	2	0	1	112.5	157.5	-2.98383881618813	0.857767918210453	0.283333333333333	0	0	0	140.900983064668	141.0009649985	0.0999819338321686	0.283363821683452
37302	100	311	2	47	2	2	90	2	2	0	2	67.5	22.5	1.60981160297864	-2.67522927846023	0.233333333333333	0	0	0	141.234328588471	141.334307596553	0.0999790080823004	0.233363589970395
37377	100	312	2	48	2	2	90	2	2	0	2	157.5	22.5	0.222576943479837	-0.00659631806924743	0.2	0	0	0	141.534332904033	141.634301671991	0.0999687679577619	0.200025307480246
37477	100	313	2	49	2	2	90	2	2	0	1	112.5	157.5	2.67991685485428	2.31973896323326	0.3	0	0	0	141.934342558961	142.034321810585	0.0999792516231537	0.300040886970237
37564.5	100	314	2	50	2	2	90	2	2	0	1	112.5	67.5	-1.98780257651241	3.04543505358433	0.25	0	0	0	142.284353932599	142.384332940681	0.0999790080823004	0.25003212201409
37635.25	100	315	2	51	2	2	90	2	2	0	2	157.5	112.5	-1.71160522719402	-1.88455499453358	0.183333333333333	0	0	0	142.567678988678	142.667647512862	0.099968524184078	0.183346047997475
37697.75	100	316	2	52	2	2	90	2	2	0	1	22.5	157.5	0.665939795880207	2.37733518228761	0.15	0	0	0	142.817667224677	142.917651596479	0.0999843718018383	0.150019711814821
37752	100	317	2	53	2	2	90	2	2	0	2	157.5	112.5	-0.2268551988949	2.8723429777922	0.116666666666667	0	0	0	143.034344241256	143.134344216669	0.099999975413084	0.116692644776776
37802	100	318	2	54	2	2	90	2	2	0	2	157.5	112.5	1.65002615714042	-0.274777657845727	0.1	0	0	0	143.234374180902	143.334354408085	0.0999802271835506	0.100029964232817
37872.75	100	319	2	55	2	2	90	2	2	3	2	157.5	112.5	-1.89942131661299	-0.375039502338705	0.183333333333333	0	0	0	143.517710939748	143.617691410705	0.0999804709572345	0.183356531662866
37968.75	100	320	2	56	2	2	90	2	2	3	2	157.5	22.5	-0.875212413371636	-2.027997484433	0.283333333333333	0	0	0	143.901064009639	144.001032046042	0.0999680364038795	0.283372598933056
38052	100	321	2	57	2	2	90	2	2	3	1	22.5	157.5	1.43606148867405	-1.39680547022751	0.233333333333333	0	0	0	144.234392954269	144.334390979493	0.0999980252236128	0.233360908227041
38114.5	100	322	2	58	2	2	90	2	2	1	-1	90	135	2.27605463785666	0.673851691740049	0.15	0	0	0	144.484413861064	144.58437775285	0.0999638917855918	0.150022881571203
38164.5	100	323	2	59	2	2	90	2	2	3	1	22.5	67.5	0.21610436917348	-0.598675293002835	0.1	0	0	0	144.684400890255	144.784410618246	0.100009727990255	0.100023137405515
38239.5	100	324	2	60	2	2	90	2	2	3	2	67.5	112.5	1.18485980079167	2.85619162617898	0.2	0	0	0	144.984414714389	145.084395916667	0.0999812022782862	0.200004096142948
38339.5	100	325	2	61	2	2	90	2	2	3	2	67.5	22.5	-2.32468579901819	-0.696117514817955	0.3	0	0	0	145.384440704482	145.484422881855	0.0999821773730218	0.300044787814841
38418.75	100	326	2	62	2	2	90	2	2	3	1	112.5	157.5	-0.0347134018422599	-2.11465971004162	0.216666666666667	0	0	0	145.701116721146	145.801100849174	0.0999841280281544	0.216693839291111
38514.5	100	327	2	63	2	2	90	2	2	0	2	67.5	112.5	-2.98267193432936	-1.360642956978	0.283333333333333	0	0	0	146.084473448107	146.184432707494	0.0999592593871057	0.283372598933056
38602	100	328	2	64	2	2	90	2	2	0	1	112.5	157.5	-1.7865676689211	2.95483033613248	0.25	0	0	0	146.434464097954	146.53444578778	0.099981689825654	0.250031390460208
38656.25	100	329	2	65	2	2	90	2	2	0	2	67.5	112.5	1.93780533000963	-2.48109412360289	0.116666666666667	0	0	0	146.65112916776	146.75111817196	0.0999890042003244	0.116683379979804
38714.5	100	330	2	66	2	2	90	2	2	0	1	22.5	67.5	-0.51651678609984	-1.61811039780179	0.133333333333333	0	0	0	146.884473496815	146.984457624843	0.0999841280281544	0.133355324855074
38768.75	100	331	2	67	2	2	90	2	2	0	1	112.5	157.5	-2.08469889258306	1.01205867445347	0.116666666666667	0	0	0	147.101143199019	147.201131471666	0.0999882726464421	0.11668557417579
38860.25	100	332	2	68	2	2	90	2	2	0	2	157.5	22.5	-0.496960048865742	1.99720849241484	0.266666666666667	0	0	0	147.467825542437	147.567803819198	0.0999782767612487	0.266694070771337
38943.75	100	333	2	69	2	2	90	2	2	0	1	22.5	157.5	-0.61765257619622	-1.65910980443242	0.233333333333333	0	0	0	147.801175211091	147.901154462947	0.0999792518559843	0.233371391892433
39027	100	334	2	70	2	2	90	2	2	0	2	157.5	22.5	2.06235287007508	-2.1597256183661	0.233333333333333	0	0	0	148.134500011103	148.234500474297	0.100000463193282	0.233345548156649
39127	100	335	2	71	2	2	90	2	2	0	2	67.5	22.5	-1.90021966614014	-0.367150264000191	0.3	0	0	0	148.534524782095	148.634486723458	0.09996194136329	0.300024307798594
39181.25	100	336	2	72	2	2	90	2	2	0	2	157.5	22.5	-0.205211302613563	-1.08984808166976	0.116666666666667	0	0	0	148.751182293752	148.851160326507	0.0999780327547342	0.116695570293814
39247.75	100	337	2	73	2	2	90	2	2	0	1	22.5	157.5	2.61275104732245	-0.580211861507913	0.166666666666667	0	0	0	149.017852227436	149.117828797316	0.0999765698798001	0.166691900929436
39339.5	100	338	2	74	2	2	90	2	2	0	1	112.5	157.5	0.0122871925256831	-1.20946373026278	0.266666666666667	0	0	0	149.384526281618	149.484512116294	0.0999858346767724	0.266697484301403
39439.5	100	339	2	75	2	2	90	2	2	0	2	157.5	22.5	0.0562906913033623	0.476856825032696	0.3	0	0	0	149.784539349843	149.88451933302	0.099979983177036	0.300027233548462
39531.25	100	340	2	76	2	2	90	2	2	0	2	157.5	112.5	-0.247668385050676	-0.314252798243577	0.266666666666667	0	0	0	150.151214135345	150.251204846194	0.0999907108489424	0.266694802325219
39593.75	100	341	2	77	2	2	90	2	2	0	2	67.5	112.5	-2.04550017443802	-2.26429338037173	0.15	0	0	0	150.401221388718	150.501217219513	0.0999958307947963	0.150016542524099
39643.75	100	342	2	78	2	2	90	2	2	0	1	112.5	67.5	-2.49517409880807	-0.861628547560477	0.1	0	0	0	150.601250353269	150.701231311774	0.0999809585046023	0.100033133756369
39714.5	100	343	2	79	2	2	90	2	2	0	1	112.5	157.5	1.41364229343835	0.460385610561868	0.183333333333333	0	0	0	150.884590281639	150.984552954324	0.0999626726843417	0.183358969865367
39793.75	100	344	2	80	2	2	90	2	2	0	2	157.5	112.5	-1.87380692981254	-0.358899611087808	0.216666666666667	0	0	0	151.201269224053	151.301228971221	0.0999597471673042	0.216716269729659
39885.25	100	345	2	81	2	2	90	2	2	0	1	112.5	67.5	2.71541012369661	-0.072933902975973	0.266666666666667	0	0	0	151.567919628695	151.667897661449	0.0999780327547342	0.266690657474101
39964.5	100	346	2	82	2	2	90	2	2	0	2	67.5	112.5	2.57779651983542	1.01081853038693	0.216666666666667	0	0	0	151.884589550318	151.984575872542	0.0999863222241402	0.216691888868809
40060.25	100	347	2	83	2	2	90	2	2	3	1	112.5	67.5	0.231223392170497	2.74110243352514	0.283333333333333	0	0	0	152.267964562867	152.367943326943	0.0999787640757859	0.2833886903245
40135.25	100	348	2	84	2	2	90	2	2	3	1	22.5	157.5	-1.45579829199098	1.47899915030867	0.2	0	0	0	152.567971316399	152.667949592927	0.0999782765284181	0.20002798945643
40218.75	100	349	2	85	2	2	90	2	2	3	1	22.5	67.5	1.9298915066738	-1.3114317257763	0.233333333333333	0	0	0	152.901308794506	153.001291947206	0.0999831527005881	0.233359201578423
40289.5	100	350	2	86	2	2	90	2	2	1	-1	90	135	2.76753685727058	0.669638216112689	0.183333333333333	0	0	0	153.184644090477	153.284615052631	0.0999709621537477	0.183352143270895
40381.25	100	351	2	87	2	2	90	2	2	3	1	112.5	157.5	2.67610725005312	0.762774420934035	0.266666666666667	0	0	0	153.551326434128	153.651307636406	0.0999812022782862	0.266711381496862
40468.75	100	352	2	88	2	2	90	2	2	3	2	157.5	22.5	0.148319683806168	-2.2149293497196	0.25	0	0	0	153.901337807765	154.001319253817	0.0999814460519701	0.250030171358958
40568.75	100	353	2	89	2	2	90	2	2	3	2	67.5	112.5	0.732513912608875	1.48094680048507	0.3	0	0	0	154.30133844167	154.401324276347	0.0999858346767724	0.30001918785274
40635.5	100	354	2	90	2	2	90	2	2	3	2	67.5	22.5	-0.925899226487608	2.45007949378594	0.166666666666667	0	0	0	154.568012763979	154.667998354882	0.0999855909030885	0.1666884876322
40718.75	100	355	2	91	2	2	90	2	2	0	2	157.5	112.5	-2.43038888381593	2.3780195676268	0.233333333333333	0	0	0	154.901358531555	155.001338270959	0.0999797394033521	0.233360176673159
40806.25	100	356	2	92	2	2	90	2	2	0	2	157.5	22.5	-2.14530786342538	1.52597574852515	0.25	0	0	0	155.251366979675	155.351320143789	0.0999531641136855	0.250028708716854
40893.75	100	357	2	93	2	2	90	2	2	0	2	157.5	112.5	-2.82134551911294	1.21396682377471	0.25	0	0	0	155.601354459999	155.701337856473	0.099983396474272	0.250034316210076
40989.5	100	358	2	94	2	2	90	2	2	0	2	67.5	22.5	0.647543868495704	0.61722737432668	0.283333333333333	0	0	0	155.984691438265	156.084705311107	0.100013872841373	0.283353581791744
41085.5	100	359	2	95	2	2	90	2	2	0	1	22.5	67.5	-2.26747739231831	-2.10980602232202	0.283333333333333	0	0	0	156.368062305963	156.468072033953	0.100009727990255	0.283356994856149
41168.75	100	360	2	96	2	2	90	2	2	0	1	112.5	67.5	2.10359905601808	1.00170049044923	0.233333333333333	0	0	0	156.701380766928	156.801366601605	0.0999858346767724	0.233308732975274
41252	100	361	2	97	2	2	90	2	2	0	1	22.5	67.5	0.0563568131246597	-2.89512085239334	0.233333333333333	0	0	0	157.034726046957	157.134707737016	0.0999816900584847	0.233359445352107
41318.75	100	362	2	98	2	2	90	2	2	0	1	112.5	157.5	-1.72407456535051	-2.27439916666782	0.166666666666667	0	0	0	157.30140061304	157.401408390608	0.100007777567953	0.166692876024172
41398	100	363	2	99	2	2	90	2	2	0	1	22.5	157.5	-0.675858421685763	-2.6780823867468	0.216666666666667	0	0	0	157.618099791696	157.718084163498	0.0999843718018383	0.21669140108861
41452	100	364	2	100	2	2	90	2	2	0	1	22.5	157.5	-0.526814614185042	-1.23031537865076	0.116666666666667	0	0	0	157.834772907197	157.934731435264	0.099958528066054	0.116688743699342
41510.5	100	365	2	101	2	2	90	2	2	0	2	157.5	112.5	0.713840948668436	-1.90388403911991	0.133333333333333	0	0	0	158.068084809696	158.168066743296	0.0999819335993379	0.133353374432772
41577	100	366	2	102	2	2	90	2	2	0	2	67.5	112.5	1.21539272991539	2.05927651508939	0.166666666666667	0	0	0	158.334753280506	158.434741553385	0.0999882728792727	0.166686537209898
41631.25	100	367	2	103	2	2	90	2	2	0	1	112.5	67.5	-2.26774473859249	0.362397406362396	0.116666666666667	0	0	0	158.551426152233	158.651419788832	0.0999936365988106	0.116684598848224
41693.75	100	368	2	104	2	2	90	2	2	0	2	67.5	22.5	-0.0481948713266198	-1.65160532120575	0.15	0	0	0	158.801438281778	158.901421678253	0.099983396474272	0.150018492946401
41760.5	100	369	2	105	2	2	90	2	2	0	2	157.5	112.5	1.10386191750848	-0.601621965479132	0.166666666666667	0	0	0	159.068109434564	159.168091611937	0.0999821773730218	0.166687756311148
41860.5	100	370	2	106	2	2	90	2	2	0	2	67.5	112.5	2.62243893285005	2.11636059520154	0.3	0	0	0	159.468120064586	159.568103217287	0.0999831527005881	0.300028452649713
41918.75	100	371	2	107	2	2	90	2	2	0	1	22.5	157.5	1.96785336174435	2.37125132085129	0.133333333333333	0	0	0	159.701489018509	159.801471683662	0.0999826651532203	0.133385801222175
41981.25	100	372	2	108	2	2	90	2	2	0	2	157.5	22.5	-3.1196685553636	1.64305108007058	0.15	0	0	0	159.951502854703	160.051464796066	0.09996194136329	0.150031171040609
42056.25	100	373	2	109	2	2	90	2	2	0	1	112.5	67.5	0.654782293957115	-0.335268632482445	0.2	0	0	0	160.251489371993	160.351492760936	0.100003388943151	0.200024575926363
42123	100	374	2	110	2	2	90	2	2	0	1	112.5	67.5	-2.38888618988131	-1.06351598180683	0.166666666666667	0	0	0	160.518182223896	160.618160012877	0.0999777889810503	0.166689462959766
42218.75	100	375	2	111	2	2	90	2	2	0	2	157.5	112.5	0.366872872114627	2.5683866727911	0.283333333333333	0	0	0	160.901520421263	161.001504305284	0.0999838840216398	0.283360408386216
42293.75	100	376	2	112	2	2	90	2	2	0	2	67.5	22.5	2.94581263198097	2.83953803815724	0.2	0	0	0	161.201505963225	161.301484239753	0.0999782765284181	0.200001657940447
42385.5	100	377	2	113	2	2	90	2	2	0	2	67.5	22.5	-1.72627390840726	1.56687834835756	0.266666666666667	0	0	0	161.568207324017	161.668189257616	0.0999819335993379	0.266723084263504
42473	100	378	2	114	2	2	90	2	2	0	1	22.5	67.5	-0.755551241118666	-0.266645299814076	0.25	0	0	0	161.918217234779	162.018187221838	0.0999699870590121	0.250027977162972
42531.25	100	379	2	115	2	2	90	2	2	3	2	67.5	22.5	-1.30812732505042	1.38701647515627	0.133333333333333	0	0	0	162.151556444122	162.251522773877	0.0999663297552615	0.133369222283363
42610.5	100	380	2	116	2	2	90	2	2	3	1	22.5	157.5	-0.488473261224805	-0.993150822038671	0.216666666666667	0	0	0	162.468229778809	162.568212200189	0.0999824213795364	0.216707004932687
42693.75	100	381	2	117	2	2	90	2	2	3	1	112.5	157.5	-2.39911520275137	-2.02816539082161	0.233333333333333	0	0	0	162.801573839737	162.90155650489	0.0999826651532203	0.233361639548093
42748	100	382	2	118	2	2	90	2	2	2	-1	45	90	-1.17540603934248	-1.99105802029099	0.116666666666667	0	0	0	163.018245736137	163.118229132844	0.0999833967071027	0.11668923124671
42835.5	100	383	2	119	2	2	90	2	2	3	1	22.5	67.5	-1.671459769524	-0.297873485572598	0.25	0	0	0	163.368252721382	163.468238556059	0.0999858346767724	0.25002358853817
42902	100	384	2	120	2	2	90	2	2	3	2	67.5	112.5	-2.64214763667134	3.06174468175303	0.166666666666667	0	0	0	163.634926556144	163.734912146814	0.0999855906702578	0.166688000084832
42964.5	100	385	2	121	2	2	90	2	2	3	1	112.5	67.5	-2.75856246782384	0.421755658657346	0.15	0	0	0	163.884937466588	163.984888680279	0.0999512136913836	0.150025319773704
43035.5	100	386	2	122	2	2	90	2	2	3	2	157.5	22.5	-1.44778533013928	1.87609159461401	0.183333333333333	0	0	0	164.168259840691	164.268243724713	0.0999838840216398	0.183371160412207
43131.25	100	387	2	123	2	2	90	2	2	0	1	22.5	157.5	1.35117683092361	2.13019029787869	0.283333333333333	0	0	0	164.551628026646	164.651607522042	0.0999794953968376	0.283384301932529
43193.75	100	388	2	124	2	2	90	2	2	0	2	157.5	112.5	-3.08159110094268	3.03537942218054	0.15	0	0	0	164.801616262645	164.901619651588	0.100003388943151	0.150008740602061
43260.5	100	389	2	125	2	2	90	2	2	0	1	22.5	67.5	2.08716661689437	2.74266792449307	0.166666666666667	0	0	0	165.06829984975	165.1682847091	0.0999848593492061	0.166680198162794
43310.5	100	390	2	126	2	2	90	2	2	0	1	22.5	67.5	-0.36986049827923	-2.1891037196576	0.1	0	0	0	165.268308090512	165.36828685482	0.0999787643086165	0.100023381412029
43368.75	100	391	2	127	2	2	90	2	2	0	2	157.5	22.5	1.79681895782411	-1.21114000372811	0.133333333333333	0	0	0	165.501646812074	165.601621919079	0.099975107004866	0.13335995725356
43439.5	100	392	2	128	2	2	90	2	2	0	1	112.5	67.5	-1.87265817712272	-2.29443691834849	0.183333333333333	0	0	0	165.784986009123	165.884972575121	0.0999865659978241	0.183364090044051
43493.75	100	393	2	129	2	2	90	2	2	0	2	67.5	22.5	1.39421594468764	0.751083860629432	0.116666666666667	0	0	0	166.001663025469	166.101626917254	0.0999638917855918	0.11669045034796
43593.75	100	394	2	130	2	2	90	2	2	0	1	22.5	67.5	-3.07785295875275	2.67732071472095	0.3	0	0	0	166.401667803992	166.501648762496	0.0999809585046023	0.300040886737406
43664.5	100	395	2	131	2	2	90	2	2	0	2	157.5	22.5	-1.97547825296327	-0.448472514606718	0.183333333333333	0	0	0	166.685013583861	166.784993079491	0.0999794956296682	0.183364821365103
43718.75	100	396	2	132	2	2	90	2	2	0	1	22.5	67.5	2.72141209915214	3.10433241037664	0.116666666666667	0	0	0	166.901664756471	167.00164010725	0.0999753507785499	0.116671676980332
43798	100	397	2	133	2	2	90	2	2	0	2	67.5	22.5	0.0327430905726769	-1.42188453858924	0.216666666666667	0	0	0	167.218360278057	167.318343430758	0.0999831527005881	0.216720170807093
43856.25	100	398	2	134	2	2	90	2	2	0	1	112.5	157.5	0.258279488470881	1.07316556927076	0.133333333333333	0	0	0	167.451700706268	167.551681420766	0.0999807144980878	0.133357275510207
43939.5	100	399	2	135	2	2	90	2	2	0	1	112.5	157.5	-1.41625652638659	-0.712707268377021	0.233333333333333	0	0	0	167.785040134797	167.885025969474	0.0999858346767724	0.233358714031056
44018.75	100	400	2	136	2	2	90	2	2	0	1	22.5	67.5	-2.72166900648288	0.188431285995056	0.216666666666667	0	0	0	168.101722734282	168.201699548168	0.0999768138863146	0.216696764808148
44081.25	100	401	2	137	2	2	90	2	2	0	1	112.5	67.5	-2.78031198984502	2.50014596740309	0.15	0	0	0	168.351721941959	168.451721917605	0.0999999756459147	0.150022393791005
44156.25	100	402	2	138	2	2	90	2	2	0	2	67.5	112.5	-3.08769303519978	1.65537604195744	0.2	0	0	0	168.65173332789	168.751712335972	0.0999790080823004	0.200011410284787
44214.75	100	403	2	139	2	2	90	2	2	0	1	112.5	67.5	1.44940593023412	-2.70269023258469	0.133333333333333	0	0	0	168.885077413172	168.985051301308	0.0999738881364465	0.133365077199414
44289.75	100	404	2	140	2	2	90	2	2	3	2	157.5	22.5	-0.0113264611999431	1.75731093950299	0.2	0	0	0	169.185058810515	169.285034161527	0.0999753510113806	0.200007509207353
44360.5	100	405	2	141	2	2	90	2	2	3	2	67.5	112.5	-0.758227803745197	2.56396379129766	0.183333333333333	0	0	0	169.468393862713	169.568376527866	0.0999826651532203	0.183359701186419
44439.75	100	406	2	142	2	2	90	2	2	3	1	112.5	67.5	-1.40916370108932	1.49997565509416	0.216666666666667	0	0	0	169.785089384299	169.885076925624	0.0999875413253903	0.216712856432423
44506.25	100	407	2	143	2	2	90	2	2	3	1	112.5	157.5	3.1026680104887	1.45191221046084	0.166666666666667	0	0	0	170.051770045655	170.151733693667	0.0999636480119079	0.166693120030686
45623	100	408	3	0	2	1	0	1	1	3	2	67.5	22.5	-0.779613598765684	1.39403265850499	0.116666666666667	0	0	0	174.518528189743	174.618514268193	0.0999860784504563	-1
45673	100	409	3	1	2	1	0	1	1	3	1	22.5	67.5	-1.3134087739623	2.5814613625	0.1	0	0	0	174.71855349699	174.81851519458	0.099961697589606	0.100039228796959
45752.25	100	410	3	2	2	1	0	1	1	3	1	112.5	67.5	-0.863601437794028	1.31110966477999	0.216666666666667	0	0	0	175.03521074052	175.135194381	0.0999836404807866	0.216695545939729
45818.75	100	411	3	3	2	1	0	1	1	3	2	67.5	112.5	-1.81350710777104	0.122810317893316	0.166666666666667	0	0	0	175.301878480008	175.401866021333	0.0999875413253903	0.166684099007398
45873	100	412	3	4	2	1	0	1	1	0	1	112.5	157.5	0.713730437288285	-1.91236034363698	0.116666666666667	0	0	0	175.518553058151	175.618541574804	0.0999885166529566	0.116687036817893
45956.25	100	413	3	5	2	1	0	1	1	0	2	157.5	22.5	1.57943167482493	2.08050253037197	0.233333333333333	0	0	0	175.851903458359	175.951882709982	0.0999792516231537	0.233361883554608
46010.5	100	414	3	6	2	1	0	1	1	0	2	67.5	22.5	-0.816117054304891	0.0839264876274584	0.116666666666667	0	0	0	176.068572916556	176.168557044584	0.0999841280281544	0.116690206574276
46106.25	100	415	3	7	2	1	0	1	1	0	2	157.5	112.5	0.522695829607069	-2.76441831044224	0.283333333333333	0	0	0	176.451929155737	176.551906944718	0.0999777889810503	0.283372111152858
46156.25	100	416	3	8	2	1	0	1	1	0	1	112.5	157.5	0.00494475928952509	0.467317760679478	0.1	0	0	0	176.651933983201	176.751910065534	0.0999760823324323	0.100027038482949
46239.75	100	417	3	9	2	1	0	1	1	0	1	22.5	67.5	-2.10982861208012	-1.13308413826973	0.233333333333333	0	0	0	176.985270242207	177.085264122579	0.0999938803724945	0.233360176673159
46339.75	100	418	3	10	2	1	0	1	1	0	1	112.5	157.5	-0.921793616146275	-0.0457333844101702	0.3	0	0	0	177.385289405705	177.485272558406	0.0999831527005881	0.300025283126161
46439.75	100	419	3	11	2	1	0	1	1	0	2	157.5	112.5	1.14716988885783	-0.329305376504566	0.3	0	0	0	177.785298085306	177.885278800037	0.0999807147309184	0.300025526899844
46493.75	100	420	3	12	2	1	0	1	1	0	1	22.5	157.5	0.174151932341959	-1.46927429690357	0.116666666666667	0	0	0	178.0019885113	178.101972151548	0.0999836402479559	0.116709711262956
46564.75	100	421	3	13	2	1	0	1	1	0	2	67.5	22.5	-0.820076923020622	-2.49662712441377	0.183333333333333	0	0	0	178.285327951889	178.385293062776	0.099965110886842	0.183355800341815
46652.25	100	422	3	14	2	1	0	1	1	0	2	67.5	22.5	-0.157242411611778	-2.90166286463739	0.25	0	0	0	178.635323234368	178.735298097599	0.0999748632311821	0.250030171591789
46731.25	100	423	3	15	2	1	0	1	1	0	1	22.5	157.5	2.24204173554485	-1.74964031876187	0.216666666666667	0	0	0	178.952015830204	179.051996057155	0.09998022695072	0.216717732604593
46789.75	100	424	3	16	2	1	0	1	1	0	1	112.5	67.5	-2.83493632084497	-2.39702924622614	0.133333333333333	0	0	0	179.185334559297	179.285344531061	0.100009971763939	0.133338502142578
46856.25	100	425	3	17	2	1	0	1	1	0	2	67.5	112.5	3.04744375782332	0.562067412548583	0.166666666666667	0	0	0	179.452028142521	179.552008369472	0.09998022695072	0.16668361146003
46935.5	100	426	3	18	2	1	0	1	1	0	1	112.5	157.5	0.547468475993841	-2.70753388797297	0.216666666666667	0	0	0	179.768702940317	179.86868804344	0.09998510312289	0.216694570844993
47002.25	100	427	3	19	2	1	0	1	1	0	2	67.5	22.5	1.75814861713622	0.131441150858351	0.166666666666667	0	0	0	180.035375799518	180.135358952451	0.0999831529334188	0.166687756078318
47081.25	100	428	3	20	2	1	0	1	1	0	2	67.5	22.5	-2.60514684368282	1.10268413169432	0.216666666666667	0	0	0	180.352043770719	180.45202692342	0.0999831527005881	0.216684818267822
47173	100	429	3	21	2	1	0	1	1	0	1	22.5	67.5	-0.940469559594239	1.9786260563747	0.266666666666667	0	0	0	180.718717824668	180.818715362344	0.099997537676245	0.266690901247784
47273	100	430	3	22	2	1	0	1	1	0	1	22.5	67.5	0.449633757018006	-2.78148183258462	0.3	0	0	0	181.118739426369	181.218721359968	0.0999819335993379	0.30002406402491
47335.5	100	431	3	23	2	1	0	1	1	0	2	157.5	22.5	0.629644670903671	-0.838467578434341	0.15	0	0	0	181.368748873938	181.468727638014	0.0999787640757859	0.15002751396969
47414.75	100	432	3	24	2	1	0	1	1	0	2	67.5	112.5	0.57499518147906	-3.12382292356398	0.216666666666667	0	0	0	181.68539636489	181.785381712019	0.0999853471294045	0.216668726876378
47510.5	100	433	3	25	2	1	0	1	1	0	1	22.5	157.5	2.01532465791006	2.79001319048367	0.283333333333333	0	0	0	182.068767476594	182.168770865537	0.100003388943151	0.283385764574632
47585.5	100	434	3	26	2	1	0	1	1	0	1	22.5	67.5	-1.98134319443237	-0.152640101897962	0.2	0	0	0	182.368767891079	182.468756651506	0.0999887604266405	0.199997025541961
47648	100	435	3	27	2	1	0	1	1	0	1	112.5	157.5	-2.70023755504569	-1.7437827227931	0.15	0	0	0	182.618774900679	182.71875268966	0.0999777889810503	0.150018249172717
47719	100	436	3	28	2	1	0	1	1	0	1	112.5	67.5	-0.663198606397505	-0.909240827484932	0.183333333333333	0	0	0	182.902112147072	183.002091642702	0.0999794956296682	0.183359457412735
47781.5	100	437	3	29	2	1	0	1	1	0	2	157.5	112.5	-3.08025446610571	-0.103455157560528	0.15	0	0	0	183.152128177462	183.252102309372	0.0999741319101304	0.150036534760147
47852.25	100	438	3	30	2	1	0	1	1	0	1	22.5	67.5	-1.35961757515308	0.223054628255187	0.183333333333333	0	0	0	183.435447626049	183.535429072101	0.0999814460519701	0.183345316676423
47944	100	439	3	31	2	1	0	1	1	0	1	22.5	157.5	0.112596736910306	2.85251682815026	0.266666666666667	0	0	0	183.802113878075	183.90213335841	0.100019480334595	0.266684805974364
48002.25	100	440	3	32	2	1	0	1	1	0	1	112.5	157.5	-1.42079507804174	-0.476132987291628	0.133333333333333	0	0	0	184.035468203481	184.13547012955	0.100001926068217	0.133334845071658
48085.5	100	441	3	33	2	1	0	1	1	3	2	67.5	22.5	-2.33296276882331	-1.28392548863807	0.233333333333333	0	0	0	184.368827380706	184.468790540937	0.0999631602317095	0.233357251156121
48185.5	100	442	3	34	2	1	0	1	1	3	1	112.5	67.5	-1.74649044714942	-1.40450213676933	0.3	0	0	0	184.768819481134	184.868791662622	0.0999721814878285	0.30002894019708
48281.5	100	443	3	35	2	1	0	1	1	3	2	157.5	22.5	-1.0070829097834	-2.88928913493884	0.283333333333333	0	0	0	185.152165967971	185.252165699843	0.0999997318722308	0.283374305348843
48369	100	444	3	36	2	1	0	1	1	2	-1	135	0	-0.988508402968651	0.365384111344314	0.25	0	0	0	185.502186850412	185.602168784011	0.0999819335993379	0.2500211505685
48444	100	445	3	37	2	1	0	1	1	3	2	157.5	112.5	2.20758615458087	-1.11411058218353	0.2	0	0	0	185.802191653289	185.902177975746	0.0999863224569708	0.200022869277745
48514.75	100	446	3	38	2	1	0	1	1	3	1	112.5	157.5	-1.96490853626361	-2.36748510645428	0.183333333333333	0	0	0	186.085534507409	186.185516685015	0.0999821776058525	0.183356531662866
48581.5	100	447	3	39	2	1	0	1	1	3	2	67.5	112.5	-0.609670570673849	-1.27452296467036	0.166666666666667	0	0	0	186.352209561272	186.452191738645	0.0999821773730218	0.166692876257002
48644	100	448	3	40	2	1	0	1	1	3	1	22.5	67.5	1.84336390660943	2.30251641974857	0.15	0	0	0	186.602215839317	186.702198260697	0.0999824213795364	0.150024100672454
48731.5	100	449	3	41	2	1	0	1	1	0	2	67.5	112.5	-2.82454966553077	-1.53385357151226	0.25	0	0	0	186.952222824562	187.052206952358	0.0999841277953237	0.250024563865736
48827.25	100	450	3	42	2	1	0	1	1	0	2	67.5	22.5	0.0866677539188072	-1.70625935700721	0.283333333333333	0	0	0	187.335569311399	187.435555389849	0.0999860784504563	0.283362359041348
48927.25	100	451	3	43	2	1	0	1	1	0	2	157.5	22.5	-2.05415961051303	1.44807118746581	0.3	0	0	0	187.735579941422	187.835565288551	0.0999853471294045	0.300024551572278
49010.5	100	452	3	44	2	1	0	1	1	0	1	112.5	67.5	1.47131881823829	-1.43700263464466	0.233333333333333	0	0	0	188.068896695739	188.168875216041	0.099978520302102	0.233331407187507
49077.25	100	453	3	45	2	1	0	1	1	0	1	22.5	67.5	1.0351929839799	0.0802560655936855	0.166666666666667	0	0	0	188.335595642682	188.435578795616	0.0999831529334188	0.166720426641405
49127.25	100	454	3	46	2	1	0	1	1	0	2	157.5	22.5	-1.96619489983597	-2.14526334082892	0.1	0	0	0	188.535599251045	188.635581672424	0.0999824213795364	0.10002045542933
49202.25	100	455	3	47	2	1	0	1	1	0	2	67.5	112.5	-2.21757228804175	0.785385279206881	0.2	0	0	0	188.835605760803	188.935565995518	0.099960234714672	0.200024088378996
49273	100	456	3	48	2	1	0	1	1	0	2	157.5	22.5	-1.54983885755618	-2.09748935394524	0.183333333333333	0	0	0	189.118924477836	189.218906167662	0.099981689825654	0.183358482317999
49327.25	100	457	3	49	2	1	0	1	1	0	1	22.5	67.5	-1.28719605405349	-2.26488370128341	0.116666666666667	0	0	0	189.335595642682	189.435603664024	0.100008021341637	0.116689475020394
49402.25	100	458	3	50	2	1	0	1	1	0	1	112.5	67.5	1.21225810013609	-1.59850712823221	0.2	0	0	0	189.635602396214	189.735591156641	0.0999887604266405	0.199998732190579
49494	100	459	3	51	2	1	0	1	1	0	2	67.5	112.5	2.99891401669486	2.60296443154247	0.266666666666667	0	0	0	190.002283033216	190.102266917471	0.0999838842544705	0.266691876575351
49585.5	100	460	3	52	2	1	0	1	1	0	1	112.5	67.5	0.872116797692474	0.187499097905949	0.266666666666667	1	0	0	190.368963913992	190.468942434294	0.099978520302102	0.266696996521205
49656.5	100	461	3	53	2	1	0	1	1	0	2	67.5	112.5	1.95643059117528	-0.221190859275321	0.183333333333333	0	0	0	190.652308230987	190.752308937954	0.100000706966966	0.183365796692669
49731.5	100	462	3	54	2	1	0	1	1	0	2	157.5	112.5	-0.240319341144925	-2.75301457224779	0.2	0	0	0	190.952308645472	191.052293992601	0.0999853471294045	0.199999707518145
49789.75	100	463	3	55	2	1	0	1	1	0	2	67.5	112.5	3.12115816015587	-2.6982477636762	0.133333333333333	0	0	0	191.185649805004	191.285636371234	0.0999865662306547	0.133355812402442
49844	100	464	3	56	2	1	0	1	1	0	2	157.5	22.5	-1.42604430333452	3.04469292717911	0.116666666666667	0	0	0	191.402305122465	191.502316800877	0.100011678412557	0.116668751230463
49910.5	100	465	3	57	2	1	0	1	1	0	1	22.5	157.5	2.05496550383472	0.488621790594389	0.166666666666667	0	0	0	191.669018454151	191.768984784139	0.0999663299880922	0.166701653273776
49969	100	466	3	58	2	1	0	1	1	0	2	157.5	112.5	-0.722507909813908	2.62312120589907	0.133333333333333	0	0	0	191.902361808112	192.002340572421	0.0999787643086165	0.133377023972571
50019	100	467	3	59	2	1	0	1	1	0	2	157.5	112.5	2.04738310015288	0.503345943377405	0.1	0	0	0	192.102366148029	192.202346374979	0.09998022695072	0.100025575608015
50094	100	468	3	60	2	1	0	1	1	0	2	67.5	22.5	2.48642322420361	0.914213465229581	0.2	0	0	0	192.402370463358	192.502354347613	0.0999838842544705	0.200024088378996
50144	100	469	3	61	2	1	0	1	1	0	2	67.5	22.5	-1.47224915911243	0.597343477487928	0.1	0	0	0	192.602377241245	192.702359175077	0.0999819338321686	0.100022893631831
50214.75	100	470	3	62	2	1	0	1	1	0	1	22.5	157.5	-1.75596078823065	2.54399322238208	0.183333333333333	0	0	0	192.885727653513	192.985701053869	0.099973400356248	0.183368478436023
50273	100	471	3	63	2	1	0	1	1	0	2	67.5	22.5	-1.39099316981197	-0.821822654632161	0.133333333333333	0	0	0	193.119060279801	193.219045382924	0.09998510312289	0.133359225932509
50323	100	472	3	64	2	1	0	1	1	0	1	112.5	67.5	2.85073202165531	2.59088614839842	0.1	0	0	0	193.319066813914	193.419037532294	0.0999707183800638	0.100021430989727
50394	100	473	3	65	2	1	0	1	1	0	1	112.5	157.5	2.19070949623391	0.472036914020117	0.183333333333333	0	0	0	193.60239650216	193.702381361742	0.0999848595820367	0.183358969865367
50481.5	100	474	3	66	2	1	0	1	1	0	2	157.5	22.5	-1.79390812301668	1.70454681880876	0.25	0	0	0	193.952396416804	194.052376643987	0.0999802271835506	0.250015055062249
50535.5	100	475	3	67	2	1	0	1	1	0	1	112.5	67.5	1.65204806584012	1.74406695459628	0.116666666666667	0	0	0	194.169066119008	194.269047321286	0.0999812022782862	0.116689475020394
50598	100	476	3	68	2	1	0	1	1	0	1	112.5	67.5	-0.612808201352129	-0.705809655337795	0.15	0	0	0	194.419068008428	194.519060669933	0.0999926615040749	0.150020687142387
50660.5	100	477	3	69	2	1	0	1	1	0	2	67.5	112.5	0.719730580162629	1.63002099725405	0.15	0	0	0	194.669081600849	194.76909010997	0.100008509121835	0.150020930916071
50748	100	478	3	70	2	1	0	1	1	0	2	157.5	112.5	1.77090580735025	-1.18527833309732	0.25	0	0	0	195.019109553657	195.119095388334	0.0999858346767724	0.250019443687052
50831.5	100	479	3	71	2	1	0	1	1	0	1	22.5	157.5	2.07656627956839	-0.056068410863503	0.233333333333333	0	0	0	195.352434109896	195.452413361752	0.0999792518559843	0.233338721562177
50919	100	480	3	72	2	1	0	1	1	0	1	22.5	157.5	-1.43311367888034	2.59472948130714	0.25	0	0	0	195.702463769354	195.802446922055	0.0999831527005881	0.25005040760152
50985.5	100	481	3	73	2	1	0	1	1	3	2	67.5	22.5	1.48668863049736	-1.98543894093691	0.166666666666667	0	0	0	195.969136385014	196.069117831066	0.0999814460519701	0.166689462959766
51039.75	100	482	3	74	2	1	0	1	1	3	1	112.5	67.5	2.69093614715446	0.476674853796122	0.116666666666667	0	0	0	196.185808525188	196.285790946567	0.0999824213795364	0.116690694121644
51114.75	100	483	3	75	2	1	0	1	1	3	2	157.5	22.5	1.44614157136028	-2.80574178602642	0.2	0	0	0	196.485818935791	196.585799894296	0.0999809585046023	0.200027989223599
51194	100	484	3	76	2	1	0	1	1	1	-1	0	135	-1.84172883786506	3.12176887654832	0.216666666666667	0	0	0	196.802493245807	196.90247298521	0.0999797394033521	0.216693351510912
51264.75	100	485	3	77	2	1	0	1	1	3	1	22.5	157.5	-0.435048520380977	0.936337773501187	0.183333333333333	0	0	0	197.085834637051	197.185815108009	0.0999804709572345	0.183361651841551
51356.5	100	486	3	78	2	1	0	1	1	3	1	112.5	157.5	0.760181946224575	2.19964961530665	0.266666666666667	1	0.542182598495856	1	197.452494062716	197.552496476332	0.100002413615584	0.266678954707459
51439.75	100	487	3	79	2	1	0	1	1	3	2	157.5	112.5	0.757910016384483	-2.01574561435147	0.233333333333333	0	0	0	197.785850801738	197.88581396197	0.0999631602317095	0.233354325406253
51498.25	100	488	3	80	2	1	0	1	1	3	1	22.5	67.5	-2.05609456224134	1.25632686739493	0.133333333333333	0	0	0	198.019173431909	198.11914780736	0.0999743754509836	0.133359469939023
51548.25	100	489	3	81	2	1	0	1	1	0	2	67.5	112.5	2.97385527408962	-0.405108133385084	0.1	0	0	0	198.219169482123	198.319151415722	0.0999819335993379	0.100021674763411
51623.25	100	490	3	82	2	1	0	1	1	0	1	112.5	157.5	-1.00510974834989	-1.6769737047931	0.2	0	0	0	198.51918062428	198.619186451193	0.10000582691282	0.20002920855768
51710.75	100	491	3	83	2	1	0	1	1	0	1	22.5	67.5	-0.713233590229714	-1.53917339706619	0.25	0	0	0	198.869216135005	198.969195874408	0.0999797394033521	0.25002968381159
51794	100	492	3	84	2	1	0	1	1	0	2	157.5	112.5	-3.06513867834821	1.61119560085599	0.233333333333333	0	0	0	199.20255580754	199.302539447788	0.0999836402479559	0.233359933132306
51844	100	493	3	85	2	1	0	1	1	0	1	22.5	157.5	-0.599048262505905	2.20089700807598	0.1	0	0	0	199.402563804295	199.502531597158	0.0999677928630263	0.100024356506765
51939.75	100	494	3	86	2	1	0	1	1	0	2	67.5	112.5	2.15616631921025	-1.2321965780683	0.283333333333333	0	0	0	199.785905171186	199.885888080113	0.0999829089269042	0.283373574027792
52035.75	100	495	3	87	2	1	0	1	1	0	2	157.5	22.5	3.08623448510898	0.74786017606849	0.283333333333333	0	0	0	200.169248000951	200.269233104307	0.0999851033557206	0.283359920838848
52123.25	100	496	3	88	2	1	0	1	1	0	1	112.5	67.5	-0.724107370969997	0.341519815992145	0.25	0	0	0	200.519258887041	200.619240576867	0.099981689825654	0.250025782734156
52198.25	100	497	3	89	2	1	0	1	1	0	2	157.5	22.5	-0.687322571887017	-2.20570512524076	0.2	0	0	0	200.819253450027	200.919222949538	0.0999694995116442	0.200012873159721
52252.25	100	498	3	90	2	1	0	1	1	0	2	67.5	112.5	-0.109900550070416	-0.671225291050345	0.116666666666667	0	0	0	201.035915594082	201.135901428759	0.0999858346767724	0.116692644543946
52314.75	100	499	3	91	2	1	0	1	1	0	1	22.5	157.5	1.13985331735088	2.01352251080199	0.15	0	0	0	201.28592431033	201.385928430595	0.100004120264202	0.150022881571203
52402.25	100	500	3	92	2	1	0	1	1	0	1	112.5	157.5	2.49258242170066	-0.984084828399284	0.25	0	0	0	201.635957383085	201.73593834159	0.0999809585046023	0.250028952490538
52502.25	100	501	3	93	2	1	0	1	1	0	2	67.5	22.5	1.54430981977619	-1.20993039662759	0.3	0	0	0	202.035967281787	202.135934343096	0.0999670613091439	0.30002894019708
52598.25	100	502	3	94	2	1	0	1	1	0	1	22.5	67.5	1.01687040219345	-1.5308888096576	0.283333333333333	0	0	0	202.419306454249	202.519291801378	0.0999853471294045	0.283372111152858
52677.25	100	503	3	95	2	1	0	1	1	0	2	157.5	22.5	2.60696751191958	1.5463800370886	0.216666666666667	0	0	0	202.73597442545	202.835947338026	0.0999729125760496	0.216682624071836
52731.5	100	504	3	96	2	1	0	1	1	0	2	157.5	112.5	1.07842461926831	2.90211363617504	0.116666666666667	0	0	0	202.952633643756	203.052617527777	0.0999838840216398	0.116686305729672
52823.25	100	505	3	97	2	1	0	1	1	0	2	67.5	22.5	-2.07773062231234	2.98809506690511	0.266666666666667	0	0	0	203.319311355008	203.419293532381	0.0999821773730218	0.266693827230483
52881.5	100	506	3	98	2	1	0	1	1	0	2	157.5	22.5	-2.49721549965531	2.92286044117954	0.133333333333333	0	0	0	203.552651295438	203.652633229271	0.0999819338321686	0.133357763057575
52952.25	100	507	3	99	2	1	0	1	1	0	2	157.5	112.5	-2.01977069842457	-2.35033482061549	0.183333333333333	0	0	0	203.835990736261	203.93597559561	0.0999848593492061	0.183357506990433
53052.25	100	508	3	100	2	1	0	1	1	0	1	112.5	67.5	1.23943437174149	2.79106224422497	0.3	0	0	0	204.236003316706	204.335982812336	0.0999794956296682	0.30002772109583
53110.75	100	509	3	101	2	1	0	1	1	0	1	22.5	157.5	1.16577236636377	0.354226943176499	0.133333333333333	0	0	0	204.469343013596	204.569326653844	0.0999836402479559	0.133360201260075
53177.25	100	510	3	102	2	1	0	1	1	0	2	157.5	22.5	-2.15693104843387	-2.22813116967588	0.166666666666667	0	0	0	204.736024162499	204.836006340105	0.0999821776058525	0.166697508655488
53269	100	511	3	103	2	1	0	1	1	0	1	112.5	157.5	2.30029144977792	0.469584599733299	0.266666666666667	0	0	0	205.102714064298	205.202700386522	0.0999863222241402	0.266707724193111
53364.75	100	512	3	104	2	1	0	1	1	0	1	112.5	157.5	-1.50970406620637	-1.2146876658731	0.283333333333333	0	0	0	205.486059575807	205.586044435389	0.0999848595820367	0.283359189284965
53431.5	100	513	3	105	2	1	0	1	1	0	2	157.5	112.5	0.49636309826123	-1.74895595012486	0.166666666666667	0	0	0	205.752736823866	205.852700715652	0.0999638917855918	0.166692388476804
53514.75	100	514	3	106	2	1	0	1	1	0	2	67.5	22.5	-1.04083405588063	-0.158932426871212	0.233333333333333	0	0	0	206.086077227723	206.186042582383	0.0999653546605259	0.233376512071118
53594	100	515	3	107	2	1	0	1	1	0	1	22.5	67.5	1.63159644623865	-0.11307270589128	0.216666666666667	0	0	0	206.402751537738	206.502734202892	0.0999826651532203	0.216708955354989
53660.75	100	516	3	108	2	1	0	1	1	0	1	112.5	157.5	-1.48092102838719	-0.97229270267532	0.166666666666667	0	0	0	206.669422202976	206.769406818552	0.0999846155755222	0.166688000084832
53752.25	100	517	3	109	2	1	0	1	1	0	2	157.5	112.5	-1.45793722701752	0.0627549447312892	0.266666666666667	0	0	0	207.036102596205	207.136069901288	0.0999673050828278	0.266695777652785
53802.25	100	518	3	110	2	1	0	1	1	0	1	22.5	67.5	1.48741148916443	-1.74226842060771	0.1	0	0	0	207.236109861638	207.336080823792	0.0999709621537477	0.100039960350841
53881.5	100	519	3	111	2	1	0	1	1	0	1	112.5	67.5	-1.21134722841808	-1.80568488298019	0.216666666666667	0	0	0	207.552784659434	207.65276342351	0.0999787640757859	0.216703835641965
53981.5	100	520	3	112	2	1	0	1	1	0	1	22.5	157.5	-1.47838304985402	2.05906986313472	0.3	0	0	0	207.952795533231	208.052775516408	0.099979983177036	0.300032109720632
54044	100	521	3	113	2	1	0	1	1	0	2	67.5	22.5	0.451446084999705	-0.154849230204188	0.15	0	0	0	208.2028049808	208.302783257328	0.0999782765284181	0.150029464391991
54110.75	100	522	3	114	2	1	0	1	1	0	1	112.5	67.5	1.33802128901819	0.658275050921912	0.166666666666667	0	0	0	208.469471988967	208.569453678792	0.099981689825654	0.166688731638715
54173.25	100	523	3	115	2	1	0	1	1	0	1	22.5	67.5	1.50590715568301	0.147819362283886	0.15	0	0	0	208.719476804137	208.819446791196	0.0999699870590121	0.150023125344887
54248.25	100	524	3	116	2	1	0	1	1	0	1	22.5	157.5	-1.1821839033832	0.34248176433843	0.2	0	0	0	209.019491603365	209.119471098995	0.0999794956296682	0.200044812168926
54339.75	100	525	3	117	2	1	0	1	1	0	2	157.5	22.5	-3.09082295091579	1.45271563049625	0.266666666666667	0	0	0	209.386167607969	209.486145884497	0.0999782765284181	0.266696508973837
54398.25	100	526	3	118	2	1	0	1	1	0	1	22.5	67.5	2.63590456360733	-1.63516201815194	0.133333333333333	0	0	0	209.61950511043	209.719488506904	0.099983396474272	0.133359225932509
54481.5	100	527	3	119	2	1	0	1	1	0	1	112.5	157.5	1.34673917663716	-0.560194430681666	0.233333333333333	0	0	0	209.952832104638	210.052807943197	0.0999758385587484	0.233343597734347
54564.75	100	528	3	120	2	1	0	1	1	0	2	67.5	112.5	0.12126727114582	-0.0698005429351185	0.233333333333333	0	0	0	210.286169826519	210.386147371726	0.0999775452073663	0.233361883321777
54644	100	529	3	121	2	1	0	1	1	0	2	157.5	112.5	-2.05493216383342	1.53709715613491	0.216666666666667	0	0	0	210.602839748142	210.702827045694	0.0999872975517064	0.216692376416177
54744	100	530	3	122	2	1	0	1	1	0	2	67.5	112.5	0.239937810983838	2.88321219438836	0.3	0	0	0	211.002857448766	211.102839382365	0.0999819335993379	0.300030403072014
54840	100	531	3	123	2	1	0	1	1	0	1	112.5	67.5	2.58799281286126	-1.78044465578655	0.283333333333333	1	0	0	211.386217588792	211.486205617897	0.0999880291055888	0.283378206426278
54923.25	100	532	3	124	2	1	0	1	1	3	2	157.5	22.5	3.05315341984885	-1.89015086605295	0.233333333333333	0	0	0	211.719564087922	211.819543583551	0.0999794956296682	0.233358470024541
54994	100	533	3	125	2	1	0	1	1	3	1	112.5	157.5	1.37437088813539	-1.75810986693852	0.183333333333333	0	0	0	212.002903041197	212.102870590053	0.0999675488565117	0.183359457645565
55094	100	534	3	126	2	1	0	1	1	3	2	157.5	112.5	0.646698497948356	-0.682900758428013	0.3	0	0	0	212.402911720797	212.502894873498	0.0999831527005881	0.300041130743921
55169	100	535	3	127	2	1	0	1	1	3	1	22.5	157.5	-1.4368236565599	2.19400831903305	0.2	0	0	0	212.702926520025	212.802908697398	0.0999821773730218	0.20003164652735
56540	100	536	4	0	1	1	90	2	2	3	1	22.5	67.5	-1.54619582257927	-2.06459236598815	0.2	0	0	0	218.186377333011	218.286351464689	0.0999741316772997	-1
56615	100	537	4	1	1	1	90	2	2	3	1	112.5	67.5	-0.930772436193647	3.04758926440641	0.2	0	0	0	218.486402372131	218.586368214572	0.0999658424407244	0.200050907442346
56690	100	538	4	2	1	1	90	2	2	3	2	157.5	112.5	-2.7424136288823	0.454474792508991	0.2	0	0	0	218.786391815171	218.886370335706	0.0999785205349326	0.200023600598797
56765	100	539	4	3	1	1	90	2	2	3	2	157.5	22.5	0.429765646956314	2.06514283265666	0.2	0	0	0	219.086395155406	219.186382209184	0.0999870537780225	0.200024819700047
56840	100	540	4	4	1	1	90	2	2	0	1	22.5	67.5	3.03534128925016	-2.18598533632827	0.2	0	0	0	219.38640678511	219.486390669364	0.0999838842544705	0.200024575926363
56915	100	541	4	5	1	1	90	2	2	0	2	157.5	22.5	0.100802973480693	-2.3670724806424	0.2	0	0	0	219.686419633916	219.786399617093	0.099979983177036	0.200028964551166
56990	100	542	4	6	1	1	90	2	2	0	2	157.5	22.5	1.55312385423152	0.360428912246392	0.2	0	0	0	219.986456376035	220.086436602985	0.09998022695072	0.200056758942083
57065	100	543	4	7	1	1	90	2	2	0	1	112.5	157.5	-1.99435214484322	-2.94179649326809	0.2	0	0	0	220.286462154239	220.386442381423	0.0999802271835506	0.20002555125393
57140	100	544	4	8	1	1	90	2	2	0	2	157.5	22.5	-1.34124119969438	3.08309480836011	0.2	0	0	0	220.58647402795	220.686441089259	0.0999670613091439	0.20003164652735
57215	100	545	4	9	1	1	90	2	2	0	2	157.5	22.5	-0.0886533560778897	-0.847806234329666	0.2	0	0	0	220.886486388976	220.986461008433	0.0999746194574982	0.200045299716294
57290	100	546	4	10	1	1	90	2	2	0	2	157.5	22.5	-2.04030095612517	-0.522512412691229	0.2	0	0	0	221.186472174944	221.286437285831	0.099965110886842	0.200011166511104
57365	100	547	4	11	1	1	90	2	2	0	1	22.5	157.5	-2.64245866864803	1.87725663954954	0.2	0	0	0	221.486469907453	221.586452328833	0.0999824213795364	0.200032621622086
57440	100	548	4	12	1	1	90	2	2	0	2	157.5	112.5	-1.58200800266752	-1.91357629157981	0.2	0	0	0	221.786479099188	221.88647541753	0.0999963183421642	0.20002677035518
57515	100	549	4	13	1	1	90	2	2	0	2	157.5	112.5	0.207543730319745	-1.60864399207723	0.2	0	0	0	222.08650901448	222.186477538664	0.099968524184078	0.200033596949652
57590	100	550	4	14	1	1	90	2	2	0	1	22.5	157.5	0.986413612935729	-2.39500748365225	0.2	0	0	0	222.386512842262	222.486479416024	0.0999665737617761	0.20003530359827
57665	100	551	4	15	1	1	90	2	2	0	2	67.5	22.5	2.88211580382323	-1.42084994768044	0.2	0	0	0	222.686506430153	222.786488607759	0.0999821776058525	0.200027014128864
57740	100	552	4	16	1	1	90	2	2	0	2	67.5	22.5	-2.00578708916466	-0.918407138967571	0.2	0	0	0	222.986533907475	223.086522911675	0.0999890042003244	0.200045299716294
57815	100	553	4	17	1	1	90	2	2	3	2	157.5	22.5	2.9377858428132	-0.92955289908014	0.2	0	0	0	223.286545780953	223.386527958559	0.0999821776058525	0.200022869277745
57890	100	554	4	18	1	1	90	2	2	3	2	67.5	22.5	1.64083787073652	1.72583259583423	0.2	0	0	0	223.586550340289	223.686507161474	0.0999568211846054	0.200022381730378
57965	100	555	4	19	1	1	90	2	2	3	1	22.5	157.5	-0.871187410726278	0.535144863444991	0.2	0	0	0	223.886555630947	223.986541953171	0.0999863222241402	0.200048469472677
58040	100	556	4	20	1	1	90	2	2	1	-1	90	135	1.26156273729198	-2.56666234567097	0.2	0	0	0	224.186566773104	224.286540417233	0.0999736441299319	0.200024819932878
58115	100	557	4	21	1	1	90	2	2	3	1	112.5	157.5	3.05965913882536	2.05545057904433	0.2	0	0	0	224.486572063761	224.586551315384	0.0999792516231537	0.20003164652735
58190	100	558	4	22	1	1	90	2	2	3	1	112.5	67.5	2.83698440141332	-2.00426574497557	0.2	1	0.492202359018847	1	224.786576135317	224.886549535673	0.099973400356248	0.200024819932878
58265	100	559	4	23	1	1	90	2	2	3	1	22.5	67.5	0.270979922573023	0.632604275496613	0.2	0	0	0	225.086588496342	225.186573112151	0.0999846158083528	0.20003896066919
58340	100	560	4	24	1	1	90	2	2	3	2	67.5	112.5	2.2187762672779	-3.02034886797262	0.2	0	0	0	225.386570869014	225.486551827518	0.0999809585046023	0.199997756863013
58415	100	561	4	25	1	1	90	2	2	0	1	22.5	157.5	-2.58910475261444	1.06876491163583	0.2	0	0	0	225.686633942649	225.786571015371	0.0999370727222413	0.200082115130499
58490	100	562	4	26	1	1	90	2	2	0	1	112.5	67.5	1.3599477948679	0.0635760485894834	0.2	0	0	0	225.986611682689	226.086579719326	0.0999680366367102	0.200040667317808
58565	100	563	4	27	1	1	90	2	2	0	2	157.5	112.5	-0.845821135210087	2.301853956199	0.2	0	0	0	226.286605758127	226.386611829046	0.100006070919335	0.200026038801298
58640	100	564	4	28	1	1	90	2	2	0	2	157.5	112.5	0.0305213500318287	0.0627855913725481	0.2	0	0	0	226.586629822152	226.686613706406	0.0999838842544705	0.200017993105575
58715	100	565	4	29	1	1	90	2	2	0	2	67.5	22.5	-0.0423615819404741	-1.55608753902983	0.2	0	0	0	226.886629017536	226.986645328579	0.100016311043873	0.200015311129391
58790	100	566	4	30	1	1	90	2	2	0	1	112.5	157.5	2.40563295035652	-2.71703835115999	0.2	0	0	0	227.186628944473	227.286603320157	0.0999743756838143	0.199983615893871
58865	100	567	4	31	1	1	90	2	2	0	2	67.5	22.5	-0.974563971973806	-1.29676133544564	0.2	0	0	0	227.48663057806	227.586618119385	0.0999875413253903	0.200027257902548
58940	100	568	4	32	1	1	90	2	2	0	2	67.5	112.5	0.309266364429223	2.68591032173602	0.2	0	0	0	227.786665857304	227.886654861504	0.0999890042003244	0.200047737918794
59015	100	569	4	33	1	1	90	2	2	0	2	67.5	22.5	-1.72540243494586	2.06907839584418	0.2	0	0	0	228.086673585931	228.186656982638	0.0999833967071027	0.200018724426627
59090	100	570	4	34	1	1	90	2	2	0	2	157.5	112.5	-2.3586365374456	-0.980198903255835	0.2	0	0	0	228.38667180622	228.486645694124	0.0999738879036158	0.200014823582023
59165	100	571	4	35	1	1	90	2	2	0	2	157.5	112.5	2.75947467436452	-1.55677176363322	0.2	0	0	0	228.686673439806	228.786657323828	0.0999838840216398	0.200027745682746
59240	100	572	4	36	1	1	90	2	2	0	2	67.5	22.5	0.500445786364148	0.015229718880359	0.2	0	0	0	228.986679949332	229.086704062298	0.100024112965912	0.200022625504062
59315	100	573	4	37	1	1	90	2	2	0	1	112.5	67.5	2.52989956665358	3.01374463434436	0.2	0	0	0	229.286680607824	229.386711547151	0.100030939327553	0.199976545525715
59390	100	574	4	38	1	1	90	2	2	0	1	22.5	157.5	-1.0146882621553	0.814719380980705	0.2	0	0	0	229.586685410701	229.686691725394	0.100006314693019	0.199973863549531
59465	100	575	4	39	1	1	90	2	2	0	1	22.5	67.5	-2.48162632387587	1.31596371368719	0.2	0	0	0	229.88671971485	229.986695553176	0.0999758383259177	0.20002798945643
59540	100	576	4	40	1	1	90	2	2	0	2	67.5	22.5	-1.60622379925286	-2.43925390395854	0.2	0	0	0	230.18673280743	230.286723518278	0.0999907108489424	0.200037254253402
59615	100	577	4	41	1	1	90	2	2	0	1	112.5	67.5	2.17653184471317	2.5436327010955	0.2	0	0	0	230.486728101736	230.586712229764	0.0999841280281544	0.200004583457485
59690	100	578	4	42	1	1	90	2	2	0	2	67.5	112.5	0.176498717739434	-0.832426608842257	0.2	0	0	0	230.78674558294	230.886726053897	0.0999804709572345	0.200033353175968
59765	100	579	4	43	1	1	90	2	2	3	2	67.5	112.5	-3.11624958322327	-1.79203957917283	0.2	0	0	0	231.086748923175	231.186732563656	0.0999836404807866	0.200022869277745
59840	100	580	4	44	1	1	90	2	2	3	2	67.5	22.5	-0.767244339619862	0.265129787808458	0.2	0	0	0	231.386750312988	231.486727614189	0.0999773012008518	0.200017749331892
59915	100	581	4	45	1	1	90	2	2	3	1	22.5	67.5	-2.21723615673903	-1.71314995124238	0.2	0	0	0	231.686747313943	231.786732173525	0.0999848595820367	0.200019699754193
59990	100	582	4	46	1	1	90	2	2	2	-1	135	90	-0.620937613381027	1.82662233055733	0.2	1	-0.00805766391567886	-1	231.986778692342	232.086750142276	0.0999714499339461	0.200046518817544
60065	100	583	4	47	1	1	90	2	2	3	1	112.5	157.5	0.104709387392242	0.131675722027143	0.2	0	0	0	232.286789102945	232.386776400497	0.0999872975517064	0.20003896066919
60140	100	584	4	48	1	1	90	2	2	3	2	157.5	112.5	-2.43210947548565	0.345377472395429	0.2	0	0	0	232.586789029883	232.68678071606	0.0999916861765087	0.200012629386038
60215	100	585	4	49	1	1	90	2	2	3	2	157.5	22.5	-1.25849992134272	2.60431356754065	0.2	0	0	0	232.886810655706	232.986771377968	0.0999607222620398	0.200029939645901
60290	100	586	4	50	1	1	90	2	2	3	1	112.5	67.5	-0.485463755910228	-0.231409448990278	0.2	0	0	0	233.186815458816	233.286797392648	0.0999819338321686	0.200044080847874
60365	100	587	4	51	1	1	90	2	2	0	1	22.5	67.5	2.43518010739817	1.19947075803562	0.2	0	0	0	233.486814166652	233.586794637376	0.0999804707244039	0.200016774004325
60440	100	588	4	52	1	1	90	2	2	0	2	157.5	112.5	1.53534374771804	-0.315394566198498	0.2	0	0	0	233.78682311438	233.886813093908	0.0999899795278907	0.200028477003798
60515	100	589	4	53	1	1	90	2	2	0	1	112.5	157.5	1.83277403840126	-0.0244382740009517	0.2	0	0	0	234.086819140241	234.186819359893	0.100000219652429	0.200006046332419
60590	100	590	4	54	1	1	90	2	2	0	1	22.5	157.5	-0.392708452328248	-0.882619792171394	0.2	0	0	0	234.3868268691	234.486801488558	0.0999746194574982	0.200007509207353
60665	100	591	4	55	1	1	90	2	2	0	1	22.5	67.5	1.62812859279978	0.725230064760475	0.2	0	0	0	234.686827527359	234.786816044012	0.0999885166529566	0.200026038801298
60740	100	592	4	56	1	1	90	2	2	0	2	157.5	22.5	2.91702294741529	-2.03957011041315	0.2	0	0	0	234.986842570361	235.086819871794	0.0999773014336824	0.200026526348665
60815	100	593	4	57	1	1	90	2	2	0	2	67.5	22.5	-2.92723098068824	1.8162077572001	0.2	0	0	0	235.286846398376	235.38685880811	0.100012409733608	0.200026526581496
60890	100	594	4	58	1	1	90	2	2	0	1	112.5	157.5	-2.43484910451733	-1.50715739069314	0.2	0	0	0	235.586880458519	235.686864342541	0.0999838840216398	0.200021650409326
60965	100	595	4	59	1	1	90	2	2	0	1	22.5	157.5	1.35921179344501	-1.10326095812016	0.2	0	0	0	235.886886724271	235.986852566712	0.0999658424407244	0.200022381730378
61040	100	596	4	60	1	1	90	2	2	0	1	22.5	157.5	-0.0146729027200792	0.634126561390943	0.2	0	0	0	236.186893477803	236.286878581159	0.0999851033557206	0.200040911091492
61115	100	597	4	61	1	1	90	2	2	0	1	112.5	67.5	2.89310908236205	1.40031315051564	0.2	0	0	0	236.486904376186	236.586885334691	0.0999809585046023	0.200025795027614
61190	100	598	4	62	1	1	90	2	2	0	1	22.5	67.5	-1.44063515847512	-1.65103052188784	0.2	0	0	0	236.786894306773	236.886866488261	0.0999721814878285	0.200008972082287
