onset	duration	total_event_number	stream_number	event_num_per_stream	timing_predictability	target_col	target_ori	n_targets	n_distractors	is_target	ori_pair_num	att_ori	unatt_ori	gabor_phase_att	gabor_phase_unatt	blank_dur	response	rt	correct	time_stimon	time_stimoff	stim_dur	ISI_dur
11076.25	100	0	0	0	1	1	90	1	1	3	2	157.5	112.5	-2.74506841393448	-1.59906873809374	0.2	0	0	0	94.3069492322393	94.4069070287514	0.0999577965121716	-1
11151.25	100	1	0	1	1	1	90	1	1	3	2	157.5	22.5	1.85449334846295	-2.89041285972181	0.2	0	0	0	94.6069572048727	94.7069145138375	0.0999573089648038	0.200050176121294
11226.25	100	2	0	2	1	1	90	1	1	3	1	112.5	67.5	-0.906671137222807	-2.28431339819812	0.2	0	0	0	94.9069434783887	95.0069183416199	0.0999748632311821	0.200028964551166
11301.25	100	3	0	3	1	1	90	1	1	3	1	22.5	157.5	0.549680147125287	-0.676140793119934	0.2	0	0	0	95.2069248757325	95.306920950301	0.0999960745684803	0.200006534112617
11376.25	100	4	0	4	1	1	90	1	1	0	1	112.5	67.5	-2.92596294041552	-0.123800154837545	0.2	0	0	0	95.5069625929464	95.6069494029507	0.0999868100043386	0.200041642645374
11451.25	100	5	0	5	1	1	90	1	1	0	1	22.5	67.5	-1.22082866726438	0.37897280335481	0.2	0	0	0	95.8069749542046	95.9069239734672	0.0999490192625672	0.20002555125393
11526.25	100	6	0	6	1	1	90	1	1	0	1	112.5	157.5	0.372682931162938	-1.61181463342005	0.2	0	0	0	96.1069465992041	96.2069285328034	0.0999819335993379	0.200022625736892
11601.25	100	7	0	7	1	1	90	1	1	0	1	112.5	67.5	1.05750749316177	-0.1616159903468	0.2	0	0	0	96.406954327831	96.5069482082035	0.0999938803724945	0.200025795027614
11676.25	100	8	0	8	1	1	90	1	1	0	2	67.5	112.5	2.10632782410981	-2.91060429080619	0.2	0	0	0	96.707013256615	96.8069781237282	0.0999648671131581	0.200065048411489
11751.25	100	9	0	9	1	1	90	1	1	0	2	67.5	112.5	-1.47743796159985	-0.062085341298503	0.2	0	0	0	97.0069717359729	97.106988778105	0.100017042132095	0.199993612244725
11826.25	100	10	0	10	1	1	90	1	1	0	1	22.5	67.5	3.02193956292808	2.16087522542292	0.2	0	0	0	97.3069850723259	97.406965786824	0.0999807144980878	0.199996294220909
11901.25	100	11	0	11	1	1	90	1	1	0	2	67.5	112.5	1.35707561888805	1.39145090253499	0.2	0	0	0	97.6069901192095	97.7069744910114	0.0999843718018383	0.20002433238551
11976.25	100	12	0	12	1	1	90	1	1	0	2	157.5	22.5	2.8706958009281	-1.3463067822483	0.2	0	0	0	97.9070068688598	98.0069856329355	0.0999787640757859	0.200032377848402
12051.25	100	13	0	13	1	1	90	1	1	0	2	157.5	22.5	-1.00484853129882	-0.0486069578575052	0.2	0	0	0	98.2070323957596	98.3069962875452	0.0999638917855918	0.200046762824059
12126.25	100	14	0	14	1	1	90	1	1	0	1	112.5	157.5	-2.0191054149949	3.09436382853783	0.2	0	0	0	98.5070391492918	98.6076876583975	0.100648509105667	0.200042861746624
12201.25	100	15	0	15	1	1	90	1	1	0	2	157.5	112.5	2.2105627982585	0.114473720991847	0.2	0	0	0	98.8070234723855	98.9070036993362	0.09998022695072	0.199335813988
12276.25	100	16	0	16	1	1	90	1	1	0	1	112.5	157.5	-0.161453699360642	2.28382225239111	0.2	0	0	0	99.1070338829886	99.207006551791	0.0999726688023657	0.200030183652416
12351.25	100	17	0	17	1	1	90	1	1	3	2	67.5	22.5	1.71981474487685	2.39175602712186	0.2	0	0	0	99.407071844209	99.5070169626269	0.0999451184179634	0.200065292418003
12426.25	100	18	0	18	1	1	90	1	1	3	1	22.5	157.5	-1.09387156607229	2.481875637043	0.2	0	0	0	99.7070420261007	99.8070246912539	0.0999826651532203	0.200025063473731
12501.25	100	19	0	19	1	1	90	1	1	3	1	112.5	157.5	-1.42197840047723	-3.03997617479165	0.2	0	0	0	100.007053412031	100.10703754006	0.0999841280281544	0.200028720777482
12576.25	100	20	0	20	1	1	90	1	1	2	-1	135	90	-1.32684212945343	-2.3497080611994	0.2	0	0	0	100.307061384665	100.407045512693	0.0999841280281544	0.200023844605312
12651.25	100	21	0	21	1	1	90	1	1	3	2	157.5	22.5	0.00219361160017595	-1.36755133756578	0.2	0	0	0	100.607072039274	100.707049828023	0.0999777887482196	0.200026526581496
12726.25	100	22	0	22	1	1	90	1	1	3	1	112.5	67.5	1.09100061716146	1.30707406399843	0.2	0	0	0	100.907086350722	101.007071210304	0.0999848595820367	0.20003652269952
12801.25	100	23	0	23	1	1	90	1	1	3	2	67.5	112.5	-0.901193285964123	0.713590901888591	0.2	0	0	0	101.207085302332	101.307068942813	0.0999836404807866	0.200014092028141
12876.25	100	24	0	24	1	1	90	1	1	3	1	22.5	67.5	-1.42078118665551	1.4531498372531	0.2	0	0	0	101.50709108077	101.607076183893	0.09998510312289	0.200022137956694
12951.25	100	25	0	25	1	1	90	1	1	0	1	112.5	157.5	-0.970237945206109	-2.97436045069245	0.2	0	0	0	101.807099297177	101.9070844003	0.09998510312289	0.20002311328426
13026.25	100	26	0	26	1	1	90	1	1	0	2	157.5	112.5	2.74898896951346	-0.94395594905346	0.2	0	0	0	102.107108488679	102.207088471856	0.099979983177036	0.200024088378996
13101.25	100	27	0	27	1	1	90	1	1	0	2	67.5	22.5	-0.575106084004993	1.14204100725017	0.2	0	0	0	102.407116217539	102.507097663591	0.0999814460519701	0.200027745682746
13176.25	100	28	0	28	1	1	90	1	1	0	1	112.5	157.5	2.65359795733118	1.96436223266817	0.2	0	0	0	102.707123458618	102.807106367545	0.0999829089269042	0.200025795027614
13251.25	100	29	0	29	1	1	90	1	1	0	1	22.5	157.5	-2.05791270917996	-2.30919872502766	0.2	0	0	0	103.007131918799	103.107146522962	0.100014604162425	0.20002555125393
13326.25	100	30	0	30	1	1	90	1	1	0	2	157.5	22.5	2.30574973647934	-3.12377261428592	0.2	0	0	0	103.307169636246	103.40715010697	0.0999804707244039	0.20002311328426
13401.25	100	31	0	31	1	1	90	1	1	0	2	67.5	22.5	-0.315515993088175	0.334442755868276	0.2	0	0	0	103.607179071521	103.707161736675	0.0999826651532203	0.200028964551166
13476.25	100	32	0	32	1	1	90	1	1	0	1	22.5	157.5	-0.852787287797642	1.16699413769614	0.2	0	0	0	103.907186068827	104.007142158691	0.0999560898635536	0.20002433215268
13551.25	100	33	0	33	1	1	90	1	1	0	1	22.5	67.5	-1.0408771434733	-2.46551791877476	0.2	0	0	0	104.207168441499	104.307150375098	0.0999819335993379	0.200026282807812
13626.25	100	34	0	34	1	1	90	1	1	0	1	112.5	67.5	-2.25027123819885	1.17759861452902	0.2	0	0	0	104.507172025507	104.607189799193	0.100017773685977	0.200021650409326
13701.25	100	35	0	35	1	1	90	1	1	0	1	22.5	67.5	3.01721588121676	-1.94037765071605	0.2	0	0	0	104.807192432461	104.907192895655	0.100000463193282	0.200002633268014
13776.25	100	36	0	36	1	1	90	1	1	0	2	157.5	112.5	-1.89341780144804	-0.441893071348649	0.2	0	0	0	105.107191627845	105.207174536772	0.0999829089269042	0.199998732190579
13851.25	100	37	0	37	1	1	90	1	1	0	1	112.5	157.5	-0.86689787087865	1.93227469691696	0.2	0	0	0	105.407200575573	105.507177389227	0.099976813653484	0.200026038801298
13926.25	100	38	0	38	1	1	90	1	1	0	2	157.5	22.5	2.22333524181732	0.596224531851555	0.2	0	0	0	105.707204647129	105.807190238032	0.0999855909030885	0.200027257902548
14001.25	100	39	0	39	1	1	90	1	1	0	2	67.5	112.5	-1.36434217944721	1.18763096322763	0.2	0	0	0	106.007213838864	106.107195041142	0.0999812022782862	0.200023600831628
14076.25	100	40	0	40	1	1	90	1	1	0	2	67.5	22.5	-2.64624687297735	2.84796578437937	0.2	0	0	0	106.30725399428	106.407231295481	0.0999773012008518	0.200058953138068
14151.25	100	41	0	41	1	1	90	1	1	0	1	112.5	157.5	1.0735343552267	0.935342888623136	0.2	0	0	0	106.607261966914	106.707223176723	0.0999612098094076	0.200030671432614
14226.25	100	42	0	42	1	1	90	1	1	0	1	112.5	157.5	-0.523807992147648	2.25373385720298	0.2	0	0	0	106.907248971751	107.007225054083	0.0999760823324323	0.200025795027614
14301.25	100	43	0	43	1	1	90	1	1	0	1	22.5	67.5	0.733753212593974	2.14382533562632	0.2	0	0	0	107.20724963001	107.30722961342	0.0999799834098667	0.200024575926363
14376.25	100	44	0	44	1	1	90	1	1	0	2	67.5	22.5	2.74088134890573	-0.152557479419005	0.2	0	0	0	107.507254189346	107.607268305961	0.100014116615057	0.200024575926363
14451.25	100	45	0	45	1	1	90	1	1	0	1	22.5	67.5	0.103390982285051	1.14560187189217	0.2	0	0	0	107.807273864746	107.90724775265	0.0999738879036158	0.200005558785051
14526.25	100	46	0	46	1	1	90	1	1	0	2	157.5	112.5	2.74217746342464	1.37984681198382	0.2	0	0	0	108.107290370623	108.207270110026	0.0999797394033521	0.20004261797294
14601.25	100	47	0	47	1	1	90	1	1	0	1	22.5	157.5	-1.23988549202665	2.50634485790932	0.2	0	0	0	108.407289078459	108.50727271894	0.0999836404807866	0.200018968433142
14676.25	100	48	0	48	1	1	90	1	1	0	1	22.5	157.5	0.334314595775571	-0.219379530817726	0.2	0	0	0	108.707295831991	108.807278253371	0.0999824213795364	0.200023113051429
14751.25	100	49	0	49	1	1	90	1	1	0	1	112.5	67.5	2.3067341257937	1.62229788103059	0.2	0	0	0	109.007305511273	109.107287688646	0.0999821773730218	0.200027257902548
14826.25	100	50	0	50	1	1	90	1	1	0	2	67.5	22.5	-1.44069624969799	-1.23370260510664	0.2	0	0	0	109.307331038173	109.407316629076	0.0999855909030885	0.200043349526823
14901.25	100	51	0	51	1	1	90	1	1	0	1	112.5	157.5	3.11656556732993	-3.1213202279371	0.2	0	0	0	109.607340229675	109.707302414812	0.0999621851369739	0.200023600598797
14976.25	100	52	0	52	1	1	90	1	1	0	2	157.5	22.5	-1.91260879039939	1.75299439082795	0.2	0	0	0	109.907327966066	110.007312581642	0.0999846155755222	0.20002555125393
15051.25	100	53	0	53	1	1	90	1	1	0	2	67.5	112.5	0.543170174642193	0.515928713415345	0.2	0	0	0	110.207355199615	110.307336645667	0.0999814460519701	0.20004261797294
15126.25	100	54	0	54	1	1	90	1	1	0	2	157.5	112.5	0.779566229946919	0.93239066370929	0.2	0	0	0	110.507362928474	110.607318530791	0.0999556023161858	0.200026282807812
15201.25	100	55	0	55	1	1	90	1	1	0	1	22.5	157.5	-2.00595246420978	-0.173103800158072	0.2	0	0	0	110.807346763788	110.907329672715	0.0999829089269042	0.200028232997283
15276.25	100	56	0	56	1	1	90	1	1	0	1	112.5	157.5	1.6273271181199	-1.18783203366994	0.2	0	0	0	111.107354248874	111.207337157801	0.0999829089269042	0.200024576159194
15351.25	100	57	0	57	1	1	90	1	1	0	1	112.5	67.5	-2.00726944570913	-2.10204341857347	0.2	0	0	0	111.407360270852	111.507340010256	0.0999797394033521	0.200023113051429
15426.25	100	58	0	58	1	1	90	1	1	0	1	22.5	67.5	1.37263932335993	1.22668365923642	0.2	1	0	0	111.707369706361	111.807351152413	0.0999814460519701	0.200029696105048
15501.25	100	59	0	59	1	1	90	1	1	0	1	112.5	67.5	3.05657106020904	2.44221147500223	0.2	0	0	0	112.00737402169	112.107357174391	0.0999831527005881	0.200022869277745
15576.25	100	60	0	60	1	1	90	1	1	0	1	112.5	157.5	3.0144207040098	2.97145557733421	0.2	0	0	0	112.307383944746	112.407378312899	0.0999943681526929	0.20002677035518
15651.25	100	61	0	61	1	1	90	1	1	0	2	67.5	112.5	-2.10018307477192	0.238413990200801	0.2	0	0	0	112.607419467764	112.707388235955	0.0999687681905925	0.200041154865175
15726.25	100	62	0	62	1	1	90	1	1	0	2	157.5	22.5	2.46181395164316	-0.467715574029302	0.2	0	0	0	112.907405985286	113.007384749362	0.0999787640757859	0.200017749331892
15801.25	100	63	0	63	1	1	90	1	1	0	2	67.5	112.5	-2.44523455120692	0.260163001738746	0.2	0	0	0	113.207406155765	113.307394916192	0.0999887604266405	0.200021406402811
15876.25	100	64	0	64	1	1	90	1	1	0	1	22.5	157.5	2.94040828231739	-2.83651838249906	0.2	0	0	0	113.507420467446	113.607401182177	0.0999807147309184	0.20002555125393
15951.25	100	65	0	65	1	1	90	1	1	0	2	157.5	112.5	-0.108938701939886	1.46168422981705	0.2	0	0	0	113.807427708525	113.90740866703	0.0999809585046023	0.200026526348665
16026.25	100	66	0	66	1	1	90	1	1	0	1	112.5	67.5	0.303608168168039	-1.462695162404	0.2	0	0	0	114.107432511635	114.207415664336	0.0999831527005881	0.200023844605312
16101.25	100	67	0	67	1	1	90	1	1	0	2	157.5	112.5	-0.530993410692715	-2.60628916991378	0.2	0	0	0	114.407470229082	114.507453625556	0.099983396474272	0.200054564746097
16176.25	100	68	0	68	1	1	90	1	1	0	1	22.5	157.5	-0.935567318411759	-2.74626979139881	0.2	0	0	0	114.707477957709	114.807462085737	0.0999841280281544	0.20002433215268
16251.25	100	69	0	69	1	1	90	1	1	0	1	22.5	157.5	1.02116838949839	2.77821190261055	0.2	0	0	0	115.007484223694	115.107438850682	0.0999546269886196	0.200022137956694
16326.25	100	70	0	70	1	1	90	1	1	0	2	157.5	22.5	-2.68934790984594	-1.04896774967422	0.2	0	0	0	115.307463914389	115.407446823316	0.0999829089269042	0.200025063706562
16401.5	100	71	0	71	1	1	90	1	1	0	2	157.5	22.5	-1.85752161169711	-0.443993859146979	0.2	0	0	0	115.607483589789	115.707456014818	0.0999724250286818	0.200036766473204
16476.5	100	72	0	72	1	1	90	1	1	0	2	67.5	22.5	1.36983009283528	-2.70990884153853	0.2	0	0	0	115.907479128102	116.007497389335	0.100018261233345	0.20002311328426
16551.5	100	73	0	73	1	1	90	1	1	0	1	22.5	67.5	-0.791612732994007	-0.595279403590128	0.2	0	0	0	116.207517333096	116.307474398054	0.0999570649582893	0.200019943760708
16626.5	100	74	0	74	1	1	90	1	1	0	2	67.5	112.5	-0.939208134126748	-0.0836222208438313	0.2	0	0	0	116.507499949308	116.607482126914	0.0999821776058525	0.20002555125393
16701.5	100	75	0	75	1	1	90	1	1	0	1	22.5	157.5	2.84066957508256	-2.36640449544475	0.2	0	0	0	116.807507921942	116.907489855774	0.0999819338321686	0.200025795027614
16776.5	100	76	0	76	1	1	90	1	1	0	1	112.5	67.5	2.23590116661867	-2.37280414751439	0.2	0	0	0	117.107512481278	117.207496365299	0.0999838840216398	0.200022625504062
16851.5	100	77	0	77	1	1	90	1	1	0	2	67.5	112.5	2.30216689453006	0.719773467499058	0.2	0	0	0	117.40751874703	117.507531644544	0.100012897513807	0.200022381730378
16926.5	100	78	0	78	1	1	90	1	1	0	1	22.5	157.5	1.18661315251838	2.03794745029595	0.2	0	0	0	117.707533302484	117.807514748769	0.0999814462848008	0.200001657940447
17001.5	100	79	0	79	1	1	90	1	1	0	1	22.5	157.5	0.296836769236182	-2.44317947220693	0.2	0	0	0	118.007546638837	118.107524915598	0.0999782767612487	0.200031890068203
17076.5	100	80	0	80	1	1	90	1	1	0	2	67.5	22.5	2.91772695953889	2.48089386763826	0.2	0	0	0	118.307544615353	118.407561901491	0.100017286138609	0.200019699754193
17151.5	100	81	0	81	1	1	90	1	1	0	1	22.5	67.5	0.31373786132305	3.10422711798869	0.2	0	0	0	118.607584526995	118.707556464477	0.0999719374813139	0.200022625504062
17226.5	100	82	0	82	1	1	90	1	1	0	2	157.5	112.5	-1.24795090014827	1.29291566577991	0.2	0	0	0	118.907575920457	119.007572482806	0.0999965623486787	0.20001945598051
17301.5	100	83	0	83	1	1	90	1	1	0	2	157.5	112.5	-1.28628532485281	-0.389743465222073	0.2	0	0	0	119.207612175029	119.307555099251	0.0999429242219776	0.200039692223072
17376.5	100	84	0	84	1	1	90	1	1	0	1	112.5	67.5	0.0794678325550371	-1.99123034052982	0.2	0	0	0	119.507581869373	119.607559658354	0.0999777889810503	0.200026770122349
17451.5	100	85	0	85	1	1	90	1	1	0	2	67.5	112.5	2.83436317176127	-1.977405984548	0.2	0	0	0	119.807587891584	119.907565192785	0.0999773012008518	0.200028233230114
17526.5	100	86	0	86	1	1	90	1	1	0	2	157.5	22.5	-1.29941411752573	1.89787008133753	0.2	0	0	0	120.107593426015	120.207574628294	0.0999812022782862	0.200028233230114
17601.5	100	87	0	87	1	1	90	1	1	0	2	157.5	112.5	-0.932310491152265	-2.71918708350949	0.2	0	0	0	120.407613832969	120.507589915069	0.0999760820996016	0.200039204675704
17676.5	100	88	0	88	1	1	90	1	1	0	2	67.5	112.5	-2.33005799957527	-1.80240205087514	0.2	0	0	0	120.707612540573	120.807593743084	0.0999812025111169	0.200022625504062
17751.5	100	89	0	89	1	1	90	1	1	0	1	112.5	157.5	-0.570244352531831	0.348786265162196	0.2	0	0	0	121.007623926504	121.107597570866	0.0999736443627626	0.200030183419585
17826.5	100	90	0	90	1	1	90	1	1	3	2	157.5	112.5	0.401622022596133	1.00663979976764	0.2	0	0	0	121.307639457285	121.407638945384	0.0999994880985469	0.200041886419058
17901.5	100	91	0	91	1	1	90	1	1	3	1	112.5	67.5	0.241184275610169	1.54268578580864	0.2	0	0	0	121.607662545983	121.7076252189	0.0999626729171723	0.200023600598797
17976.5	100	92	0	92	1	1	90	1	1	3	2	157.5	22.5	-0.204377747735344	-1.38311493567424	0.2	0	0	0	121.907667105319	122.007652208442	0.09998510312289	0.200041886419058
18051.5	100	93	0	93	1	1	90	1	1	1	-1	90	45	-2.15654345473722	0.446755406278733	0.2	0	0	0	122.207650696859	122.307631655363	0.0999809585046023	0.199998488416895
18126.5	100	94	0	94	1	1	90	1	1	3	2	67.5	22.5	-0.736726314150225	-2.39795208272237	0.2	0	0	0	122.507669884712	122.607643041294	0.0999731565825641	0.200038229348138
18201.5	100	95	0	95	1	1	90	1	1	3	1	22.5	67.5	-0.144316566235768	-0.63755159523261	0.2	0	0	0	122.807665910572	122.907646625303	0.0999807147309184	0.200022869277745
18276.5	100	96	0	96	1	1	90	1	1	3	2	67.5	112.5	-1.89024988715891	0.777354367292224	0.2	0	0	0	123.107677052729	123.207659474108	0.0999824213795364	0.2000304274261
18351.5	100	97	0	97	1	1	90	1	1	3	1	22.5	157.5	-2.3060355650676	-3.07895623927318	0.2	0	0	0	123.407684537582	123.507662570337	0.0999780327547342	0.200025063473731
18426.5	100	98	0	98	1	1	90	1	1	0	2	67.5	112.5	-2.57088338971336	-2.56707217383743	0.2	0	0	0	123.707696411293	123.807675662916	0.0999792516231537	0.200033840956166
18501.5	100	99	0	99	1	1	90	1	1	0	2	157.5	22.5	2.01837468035147	1.16538285321062	0.2	0	0	0	124.007706578122	124.107685342198	0.0999787640757859	0.200030915206298
18576.5	100	100	0	100	1	1	90	1	1	0	1	22.5	67.5	1.01573047203842	-0.066326716633192	0.2	0	0	0	124.307708455482	124.407691608183	0.0999831527005881	0.20002311328426
18651.5	100	101	0	101	1	1	90	1	1	0	2	67.5	22.5	-0.742334344176141	-0.921096762025887	0.2	0	0	0	124.607718622312	124.707701287465	0.0999826651532203	0.200027014128864
18726.5	100	102	0	102	1	1	90	1	1	0	2	157.5	22.5	-1.09300926859395	0.981149119092946	0.2	0	0	0	124.90772757004	125.007709259866	0.099981689825654	0.200026282574981
18801.5	100	103	0	103	1	1	90	1	1	0	2	67.5	112.5	2.61679668584244	2.60623284628044	0.2	0	0	0	125.207730666501	125.307714062976	0.099983396474272	0.200021406635642
18876.5	100	104	0	104	1	1	90	1	1	0	2	67.5	22.5	0.247705836665898	-2.27305305462783	0.2	0	0	0	125.507775210543	125.607756656595	0.0999814460519701	0.200061147566885
18951.5	100	105	0	105	1	1	90	1	1	0	2	157.5	112.5	-1.09679408045585	-1.28978562642907	0.2	0	0	0	125.807746123988	125.907741223462	0.0999950994737446	0.199989467393607
19026.5	100	106	0	106	1	1	90	1	1	0	1	22.5	157.5	2.36561736281498	0.431329370782385	0.2	0	0	0	126.10776701849	126.207742125494	0.099975107004866	0.200025795027614
19101.5	100	107	0	107	1	1	90	1	1	0	2	67.5	22.5	0.403973914260466	1.11807493372527	0.2	0	0	0	126.407764994772	126.507748879027	0.0999838842544705	0.200022869277745
19176.5	100	108	0	108	1	1	90	1	1	0	1	22.5	67.5	-0.444843922081468	-1.31798259955021	0.2	0	0	0	126.707772236085	126.807753438363	0.0999812022782862	0.200023357057944
19251.5	100	109	0	109	1	1	90	1	1	0	2	157.5	112.5	2.99507147070379	2.77698527643284	0.2	0	0	0	127.007782402914	127.107763605192	0.0999812022782862	0.200028964551166
19326.5	100	110	0	110	1	1	90	1	1	0	1	22.5	67.5	-0.0414049216416186	0.313428144353032	0.2	0	0	0	127.307788668666	127.407769139623	0.0999804709572345	0.200025063473731
19401.5	100	111	0	111	1	1	90	1	1	0	1	22.5	157.5	-0.128335461170809	-1.75558089103361	0.2	0	0	0	127.607801761245	127.707776380703	0.0999746194574982	0.200032621622086
19476.5	100	112	0	112	1	1	90	1	1	0	1	112.5	157.5	1.30877830708787	-2.74458245522248	0.2	0	0	0	127.907802907284	128.007819218095	0.100016310811043	0.200026526581496
19551.5	100	113	0	113	1	1	90	1	1	0	2	67.5	22.5	-0.729530938831006	-1.66107128087865	0.2	0	0	0	128.20781575609	128.307798177237	0.0999824211467057	0.199996537994593
19626.5	100	114	0	114	1	1	90	1	1	0	1	22.5	67.5	2.23030806817139	2.08983726216032	0.2	0	0	0	128.507830311544	128.607805174775	0.0999748632311821	0.200032134307548
19701.5	100	115	0	115	1	1	90	1	1	0	1	112.5	67.5	-2.1423941578939	-1.36067262730952	0.2	0	0	0	128.807830725797	128.907813147176	0.0999824213795364	0.200025551021099
19776.5	100	116	0	116	1	1	90	1	1	0	2	157.5	112.5	0.590308382727774	2.98516004424047	0.2	0	0	0	129.107837235555	129.207821363583	0.0999841280281544	0.200024088378996
19851.5	100	117	0	117	1	1	90	1	1	0	2	157.5	22.5	1.51441242025997	1.93540219606068	0.2	0	0	0	129.407843745314	129.507862250553	0.100018505239859	0.200022381730378
19926.5	100	118	0	118	1	1	90	1	1	0	2	67.5	22.5	-1.25159352396414	2.28395439566808	0.2	0	0	0	129.707856350346	129.807839015499	0.0999826651532203	0.199994099792093
20001.5	100	119	0	119	1	1	90	1	1	0	1	112.5	67.5	-1.564084111503	-0.293184571517192	0.2	0	0	0	130.007874319097	130.107858203351	0.0999838842544705	0.20003530359827
20076.5	100	120	0	120	1	1	90	1	1	0	2	157.5	22.5	-3.01799413091522	-0.698039147555259	0.2	1	0	0	130.307880585082	130.407879097853	0.0999985127709806	0.200022381730378
20151.5	100	121	0	121	1	1	90	1	1	0	2	67.5	22.5	2.79712370977958	-2.31734674912901	0.2	0	0	0	130.607892702334	130.707853912143	0.0999612098094076	0.200013604480773
20226.5	100	122	0	122	1	1	90	1	1	0	1	112.5	67.5	-1.20958586664105	-3.02415190019175	0.2	0	0	0	130.907903844491	131.007883827668	0.099979983177036	0.200049932347611
20301.5	100	123	0	123	1	1	90	1	1	0	1	112.5	67.5	2.69890794497864	-0.995229859648051	0.2	0	0	0	131.207927420735	131.307912280317	0.0999848595820367	0.200043593067676
20376.5	100	124	0	124	1	1	90	1	1	3	1	22.5	67.5	-2.24126612553003	0.460089639733809	0.2	0	0	0	131.507916132454	131.607901723357	0.0999855909030885	0.200003852136433
20451.5	100	125	0	125	1	1	90	1	1	3	2	67.5	22.5	-2.99221040795971	-2.91573598059318	0.2	0	0	0	131.807922154432	131.907932370203	0.100010215770453	0.200020431075245
20526.5	100	126	0	126	1	1	90	1	1	3	2	67.5	112.5	1.00567938784524	2.28321459231119	0.2	0	0	0	132.107941586059	132.207926445641	0.0999848595820367	0.200009215855971
20601.5	100	127	0	127	1	1	90	1	1	3	1	112.5	157.5	2.89548612972172	0.0406336190552592	0.2	0	0	0	132.407951996895	132.507933442947	0.0999814460519701	0.20002555125393
22764	100	128	1	0	2	2	90	1	2	3	1	22.5	67.5	0.665539303608738	-0.105337052147141	0.183333333333333	0	0	0	141.058164196555	141.158146373928	0.0999821773730218	-1
22814	100	129	1	1	2	2	90	1	2	3	1	22.5	157.5	0.8203821152691	0.604586821065426	0.1	0	0	0	141.258184871636	141.358149982523	0.099965110886842	0.100038497708738
22872.25	100	130	1	2	2	2	90	1	2	3	2	67.5	22.5	-2.23660641689539	-1.60632209615931	0.133333333333333	0	0	0	141.49153090734	141.591504063923	0.0999731565825641	0.133380924817175
22959.75	100	131	1	3	2	2	90	1	2	3	1	112.5	157.5	1.6630562707776	-0.513498417133677	0.25	0	0	0	141.841514730593	141.941513974918	0.099999244324863	0.250010666670278
23034.75	100	132	1	4	2	2	90	1	2	0	2	157.5	22.5	-0.411175676427044	-2.61113703168007	0.2	0	0	0	142.14154659654	142.241531455889	0.0999848593492061	0.200032621622086
23126.5	100	133	1	5	2	2	90	1	2	0	1	22.5	67.5	-0.443233088401128	2.44674354694173	0.266666666666667	0	0	0	142.508201877354	142.608212092891	0.100010215537623	0.266670421464369
23180.75	100	134	1	6	2	2	90	1	2	0	2	157.5	22.5	-1.04624603883004	-1.06374306008352	0.116666666666667	0	0	0	142.724899617489	142.824851318728	0.0999517012387514	0.116687524598092
23280.75	100	135	1	7	2	2	90	1	2	0	1	112.5	157.5	-0.340359996379388	-0.491249902566371	0.3	0	0	0	143.124890011502	143.224864386953	0.0999743754509836	0.300038692774251
23380.75	100	136	1	8	2	2	90	1	2	0	2	157.5	22.5	-1.70718937743585	-2.20432640764304	0.3	0	0	0	143.524891864276	143.624880868476	0.0999890042003244	0.300027477322146
23460	100	137	1	9	2	2	90	1	2	0	1	112.5	157.5	0.604611235619637	-1.2839321559415	0.216666666666667	0	0	0	143.841575683095	143.941553959623	0.0999782765284181	0.216694814618677
23547.5	100	138	1	10	2	2	90	1	2	0	2	157.5	22.5	-2.06385840282003	0.345668704588724	0.25	0	0	0	144.191584374756	144.291563382838	0.0999790080823004	0.250030415132642
23597.5	100	139	1	11	2	2	90	1	2	0	1	112.5	157.5	-2.8373021929829	0.398205513957023	0.1	0	0	0	144.391587008024	144.49156625988	0.0999792518559843	0.100023625185713
23689	100	140	1	12	2	2	90	1	2	0	1	22.5	157.5	1.05546337085815	-0.415764164836021	0.266666666666667	0	0	0	144.758262281073	144.858274203492	0.100011922419071	0.266696021193638
23768.25	100	141	1	13	2	2	90	1	2	0	2	67.5	22.5	-2.13259738468644	-1.09292013457724	0.216666666666667	0	0	0	145.074938053964	145.174921450671	0.0999833967071027	0.216663850471377
23847.5	100	142	1	14	2	2	90	1	2	0	2	157.5	112.5	-0.167703406048594	-2.49873871646885	0.216666666666667	0	0	0	145.391614070861	145.491589421639	0.0999753507785499	0.21669262018986
23939	100	143	1	15	2	2	90	1	2	0	1	112.5	67.5	-0.0538881160931433	1.80171299229419	0.266666666666667	0	0	0	145.758287149714	145.858269814868	0.0999826651532203	0.266697728075087
24022.5	100	144	1	16	2	2	90	1	2	0	1	22.5	67.5	-3.13144650433116	-1.06723245714794	0.233333333333333	0	0	0	146.091631698189	146.191615094896	0.0999833967071027	0.233361883321777
24085	100	145	1	17	2	2	90	1	2	0	2	157.5	112.5	-2.34438877339452	-2.66276374044973	0.15	0	0	0	146.341638707789	146.441615277668	0.0999765698798001	0.150023612892255
24164	100	146	1	18	2	2	90	1	2	0	1	22.5	157.5	2.20230446924495	2.84189843592061	0.216666666666667	0	0	0	146.658313017804	146.75828934391	0.0999763261061162	0.216697740135714
24230.75	100	147	1	19	2	2	90	1	2	0	1	112.5	67.5	1.16551938218646	-2.27634856960742	0.166666666666667	0	0	0	146.925018791575	147.02499682433	0.0999780327547342	0.166729447664693
24318.25	100	148	1	20	2	2	90	1	2	0	1	22.5	157.5	-1.83747164108725	0.121473880545941	0.25	0	0	0	147.275021631969	147.374977721833	0.0999560898635536	0.25002480763942
24401.5	100	149	1	21	2	2	90	1	2	0	2	157.5	22.5	-3.13478266306192	-2.68424268956968	0.233333333333333	0	0	0	147.608344237786	147.708321051439	0.099976813653484	0.233366515953094
24451.5	100	150	1	22	2	2	90	1	2	0	1	112.5	67.5	2.56964507885875	-1.95180115266112	0.1	0	0	0	147.808339556679	147.908327829326	0.0999882726464421	0.100018505239859
24522.5	100	151	1	23	2	2	90	1	2	0	1	22.5	67.5	-1.65986175295313	-0.201134680573493	0.183333333333333	0	0	0	148.091691431589	148.191667757696	0.0999763261061162	0.183363602263853
24589	100	152	1	24	2	2	90	1	2	0	2	157.5	22.5	1.28840978277396	-0.728035627505371	0.166666666666667	0	0	0	148.358389159665	148.458354026778	0.0999648671131581	0.166721401968971
24689	100	153	1	25	2	2	90	1	2	0	2	67.5	112.5	-0.915543176041646	2.52520156450985	0.3	0	0	0	148.758365168702	148.85834929673	0.0999841280281544	0.300011141924188
24751.5	100	154	1	26	2	2	90	1	2	0	2	67.5	22.5	-0.225000910074709	2.47209728562153	0.15	0	0	0	149.008373397402	149.108352649258	0.0999792518559843	0.150024100672454
24835	100	155	1	27	2	2	90	1	2	0	1	112.5	67.5	-1.8766188935692	0.724367647969638	0.233333333333333	0	0	0	149.341748422012	149.441710119601	0.099961697589606	0.233395772753283
24885	100	156	1	28	2	2	90	1	2	0	1	22.5	67.5	2.02134453548981	1.87126343153703	0.1	0	0	0	149.541732038138	149.641734695761	0.100002657622099	0.100021918537095
24968.25	100	157	1	29	2	2	90	1	2	0	2	157.5	112.5	-1.23636414574962	2.13571855591171	0.233333333333333	0	0	0	149.875066590495	149.975045598578	0.0999790080823004	0.233331894734874
25047.5	100	158	1	30	2	2	90	1	2	0	1	22.5	67.5	0.0994268109455132	-3.13162499953198	0.216666666666667	0	0	0	150.191739193862	150.291718689492	0.0999794956296682	0.216693595284596
25118.25	100	159	1	31	2	2	90	1	2	0	2	67.5	22.5	1.66232091745203	1.08293951062455	0.183333333333333	0	0	0	150.475078390911	150.575064956909	0.0999865659978241	0.183359701419249
25168.25	100	160	1	32	2	2	90	1	2	0	2	67.5	22.5	1.79224267162599	-2.44038198052517	0.1	0	0	0	150.675085412571	150.775064664427	0.0999792518559843	0.100020455662161
25251.5	100	161	1	33	2	2	90	1	2	0	1	22.5	157.5	-0.837863819604296	-1.0321011033547	0.233333333333333	0	0	0	151.008423134452	151.108445052989	0.100021918537095	0.233358470024541
25351.5	100	162	1	34	2	2	90	1	2	0	2	157.5	112.5	1.94050476134132	-0.831308951171311	0.3	0	0	0	151.408441566629	151.508418136509	0.0999765698798001	0.299996513640508
25418.25	100	163	1	35	2	2	90	1	2	0	1	22.5	67.5	1.97437422826864	1.63624372875531	0.166666666666667	0	0	0	151.675131736323	151.775098797865	0.0999670615419745	0.166713599814102
25489	100	164	1	36	2	2	90	1	2	0	2	67.5	112.5	1.02502657159678	0.471074871359731	0.183333333333333	0	0	0	151.958454354433	152.058437994681	0.0999836402479559	0.183355556568131
25543.25	100	165	1	37	2	2	90	1	2	0	2	67.5	112.5	2.5661633934162	-0.369806556115527	0.116666666666667	0	0	0	152.175127957482	152.275113548152	0.0999855906702578	0.116689962800592
25614	100	166	1	38	2	2	90	1	2	0	1	112.5	157.5	-2.75162266929511	-1.11364960315499	0.183333333333333	0	0	0	152.458467398072	152.55844860035	0.0999812022782862	0.183353849919513
25668.25	100	167	1	39	2	2	90	1	2	3	1	112.5	157.5	-0.0353334085793002	1.69387337111654	0.116666666666667	0	0	0	152.675138563151	152.775120740524	0.0999821773730218	0.116689962800592
25768.25	100	168	1	40	2	2	90	1	2	3	1	112.5	67.5	-0.947670881725231	-1.99154946253352	0.3	0	0	0	153.075149924727	153.175131858326	0.0999819335993379	0.300029184203595
25843.25	100	169	1	41	2	2	90	1	2	3	1	22.5	67.5	-2.24418941715939	2.47342394059566	0.2	0	0	0	153.375159603776	153.47513690521	0.0999773014336824	0.200027745449916
25914	100	170	1	42	2	2	90	1	2	2	-1	135	90	-1.64413311277208	0.308389121204365	0.183333333333333	0	0	0	153.658498800825	153.75848268508	0.0999838842544705	0.183361895615235
26005.75	100	171	1	43	2	2	90	1	2	3	1	22.5	157.5	-0.744099305458823	0.505210431749893	0.266666666666667	0	0	0	154.025170904351	154.125167222926	0.0999963185749948	0.2666882192716
26055.75	100	172	1	44	2	2	90	1	2	3	2	67.5	112.5	-2.55242310414746	2.31998274860548	0.1	0	0	0	154.22518889769	154.325172294164	0.099983396474272	0.100021674763411
26114	100	173	1	45	2	2	90	1	2	3	2	157.5	22.5	-0.647223462993901	2.32757574463484	0.133333333333333	0	0	0	154.458532739198	154.558515891898	0.0999831527005881	0.133360445033759
26201.5	100	174	1	46	2	2	90	1	2	3	2	67.5	22.5	1.59347018621976	-0.846113612514979	0.25	0	0	0	154.80853679846	154.908521414269	0.0999846158083528	0.250020906561986
26301.5	100	175	1	47	2	2	90	1	2	0	1	22.5	67.5	-1.37320380179146	1.97417490074326	0.3	0	0	0	155.208554011537	155.30853667669	0.0999826651532203	0.300032597268
26389	100	176	1	48	2	2	90	1	2	0	1	22.5	67.5	2.64443036965828	-1.91326693751632	0.25	0	0	0	155.558568798471	155.658546831226	0.0999780327547342	0.25003212178126
26480.75	100	177	1	49	2	2	90	1	2	0	2	157.5	22.5	1.8627898036971	-1.10473284556649	0.266666666666667	0	0	0	155.925241877325	156.025222104508	0.0999802271835506	0.266695046098903
26572.5	100	178	1	50	2	2	90	1	2	0	2	67.5	22.5	1.60253571898629	-2.05540371859533	0.266666666666667	0	0	0	156.29191666306	156.391890550964	0.0999738879036158	0.266694558551535
26668.25	100	179	1	51	2	2	90	1	2	0	1	22.5	67.5	-0.143568360847952	2.45606903943483	0.283333333333333	0	0	0	156.675250471802	156.775232405402	0.0999819335993379	0.283359920838848
26751.5	100	180	1	52	2	2	90	1	2	0	2	67.5	22.5	-0.187577562760271	3.06537769930871	0.233333333333333	0	0	0	157.008587949909	157.108604016947	0.100016067037359	0.233355544507504
26814	100	181	1	53	2	2	90	1	2	0	1	22.5	67.5	0.212154000679768	1.6674545349306	0.15	0	0	0	157.258605686948	157.35858762078	0.0999819338321686	0.150001670001075
26880.75	100	182	1	54	2	2	90	1	2	0	1	112.5	157.5	-2.56915904469722	-1.59684032249245	0.166666666666667	0	0	0	157.525270500686	157.625255847815	0.0999853471294045	0.166682879906148
26939	100	183	1	55	2	2	90	1	2	0	1	22.5	157.5	-1.89135269761009	2.77353601935406	0.133333333333333	0	0	0	157.758614342194	157.858597007347	0.0999826651532203	0.133358494378626
26997.5	100	184	1	56	2	2	90	1	2	0	1	112.5	157.5	1.18544549478365	-0.213636580458291	0.133333333333333	0	0	0	157.991978663718	158.091949869879	0.0999712061602622	0.133381656371057
27047.5	100	185	1	57	2	2	90	1	2	0	2	67.5	112.5	-2.49104213520543	-3.10628323600534	0.1	0	0	0	158.191969350213	158.291953478241	0.0999841280281544	0.100019480334595
27118.25	100	186	1	58	2	2	90	1	2	0	1	112.5	67.5	0.661821123655179	3.01816920902977	0.183333333333333	0	0	0	158.475305377739	158.575314617949	0.100009240210056	0.183351899497211
27218.25	100	187	1	59	2	2	90	1	2	0	1	22.5	157.5	0.759906414897439	2.90344884811113	0.3	0	0	0	158.875345264794	158.975307693938	0.0999624291434884	0.300030646845698
27314.25	100	188	1	60	2	2	90	1	2	0	1	112.5	157.5	1.96828583973408	-2.30753288746375	0.283333333333333	0	0	0	159.258665176574	159.358645403525	0.09998022695072	0.283357482636347
27389.25	100	189	1	61	2	2	90	1	2	0	2	67.5	22.5	-3.00199593976996	-3.1209598678702	0.2	0	0	0	159.558670954779	159.658657277003	0.0999863222241402	0.20002555125393
27447.5	100	190	1	62	2	2	90	1	2	0	2	67.5	22.5	1.11796354228372	-0.747281588818146	0.133333333333333	0	0	0	159.792009676341	159.891993804369	0.0999841280281544	0.133352399338037
27514.25	100	191	1	63	2	2	90	1	2	3	1	112.5	67.5	0.692665790530686	-0.98897807994854	0.166666666666667	1	0	0	160.058705453761	160.158682267647	0.0999768138863146	0.1667116493918
27568.25	100	192	1	64	2	2	90	1	2	3	2	67.5	22.5	0.0853974979954191	1.52320790934297	0.116666666666667	0	0	0	160.275371254887	160.375350994524	0.0999797396361828	0.116688987240195
27643.25	100	193	1	65	2	2	90	1	2	3	1	22.5	67.5	0.00745135456300927	-0.0585152363874855	0.2	0	0	0	160.575383128598	160.675344338408	0.0999612098094076	0.200032134074718
27726.75	100	194	1	66	2	2	90	1	2	1	-1	90	135	0.286858887531623	2.74960708835764	0.233333333333333	0	0	0	160.908705002861	161.008683766937	0.0999787640757859	0.233360664453357
27785	100	195	1	67	2	2	90	1	2	3	1	22.5	157.5	1.19764086623767	1.33423775907955	0.133333333333333	0	0	0	161.14204664994	161.242026877124	0.0999802271835506	0.133362883003429
27855.75	100	196	1	68	2	2	90	1	2	3	2	157.5	112.5	-0.315731427962906	-3.0421214279899	0.183333333333333	0	0	0	161.425382189918	161.525371681666	0.0999894917476922	0.183355312794447
27905.75	100	197	1	69	2	2	90	1	2	3	2	67.5	112.5	1.80713501728889	1.94494033976099	0.1	0	0	0	161.625397744821	161.725374314701	0.0999765698798001	0.100026063155383
27993.25	100	198	1	70	2	2	90	1	2	3	2	157.5	22.5	0.498764758459862	3.1356777061634	0.25	0	0	0	161.975404486293	162.075388126541	0.0999836402479559	0.250030171591789
28055.75	100	199	1	71	2	2	90	1	2	0	1	22.5	157.5	2.73169769279922	1.57667284471884	0.15	0	0	0	162.225410033017	162.325396355242	0.0999863222241402	0.150021906476468
28135	100	200	1	72	2	2	90	1	2	0	2	157.5	22.5	0.361058231399335	-1.91373428895771	0.216666666666667	0	0	0	162.542088731658	162.642067008186	0.0999782765284181	0.216692376416177
28193.25	100	201	1	73	2	2	90	1	2	0	1	112.5	67.5	-2.75749101098721	-0.982460045540915	0.133333333333333	0	0	0	162.775433304487	162.875397684053	0.0999643795657903	0.133366296300665
28268.25	100	202	1	74	2	2	90	1	2	0	1	22.5	157.5	-2.2203177789602	-2.25176871572807	0.2	0	0	0	163.075423235307	163.175403462257	0.09998022695072	0.20002555125393
28322.5	100	203	1	75	2	2	90	1	2	0	1	112.5	157.5	-0.523543347178789	2.54928696676534	0.116666666666667	0	0	0	163.292097569676	163.392076089978	0.099978520302102	0.11669410741888
28376.75	100	204	1	76	2	2	90	1	2	0	2	67.5	22.5	2.87964987298962	0.895256789900047	0.116666666666667	0	0	0	163.508768003201	163.608750180807	0.0999821776058525	0.116691913222894
28435	100	205	1	77	2	2	90	1	2	0	1	22.5	67.5	-3.01493869845761	1.6721257004814	0.133333333333333	0	0	0	163.742107699858	163.842088414589	0.0999807147309184	0.13335751905106
28497.5	100	206	1	78	2	2	90	1	2	0	2	67.5	112.5	1.69621299697079	-2.58487088901381	0.15	0	0	0	163.992109101964	164.092093961313	0.0999848593492061	0.150020687375218
28597.5	100	207	1	79	2	2	90	1	2	0	2	67.5	22.5	-1.84230875953218	-2.45113252295629	0.3	0	0	0	164.392123632831	164.492102640914	0.0999790080823004	0.300029671518132
28672.5	100	208	1	80	2	2	90	1	2	0	1	112.5	67.5	-1.3421180716625	-0.577409864602725	0.2	0	0	0	164.692131605465	164.792116952594	0.0999853471294045	0.200028964551166
28760	100	209	1	81	2	2	90	1	2	0	1	112.5	157.5	-2.96982191129515	2.78390632047789	0.25	0	0	0	165.04214151646	165.142120768083	0.0999792516231537	0.250024563865736
28826.75	100	210	1	82	2	2	90	1	2	0	2	67.5	22.5	1.71994049053518	-2.74421394182486	0.166666666666667	0	0	0	165.308817301411	165.408793383744	0.0999760823324323	0.166696533327922
28901.75	100	211	1	83	2	2	90	1	2	0	1	112.5	157.5	0.695449279766004	-0.424798778935195	0.2	0	0	0	165.608817472123	165.708805013448	0.0999875413253903	0.200024088378996
28960	100	212	1	84	2	2	90	1	2	0	2	157.5	22.5	2.28034121685474	-1.75714899140073	0.133333333333333	0	0	0	165.842162288958	165.942141540814	0.0999792518559843	0.133357275510207
29014.25	100	213	1	85	2	2	90	1	2	0	1	22.5	157.5	2.77071893867867	3.05336653306554	0.116666666666667	0	0	0	166.058834672906	166.158815875184	0.0999812022782862	0.116693132091314
29097.5	100	214	1	86	2	2	90	1	2	0	2	67.5	112.5	-0.545977725196648	-1.43847509786473	0.233333333333333	0	0	0	166.392175076762	166.492164080963	0.0999890042003244	0.233359201578423
29193.25	100	215	1	87	2	2	90	1	2	0	2	157.5	22.5	2.94445884489494	1.38247570511992	0.283333333333333	0	0	0	166.77552814642	166.875507154502	0.0999790080823004	0.283364065457135
29268.25	100	216	1	88	2	2	90	1	2	0	1	22.5	67.5	-3.0507375633648	-2.22528933764809	0.2	0	0	0	167.075533680851	167.175515614683	0.0999819338321686	0.200026526348665
29364.25	100	217	1	89	2	2	90	1	2	0	1	112.5	67.5	2.69674785536709	2.93719519526434	0.283333333333333	0	0	0	167.458875291515	167.558856006246	0.0999807147309184	0.283359676832333
29460	100	218	1	90	2	2	90	1	2	0	2	157.5	112.5	-1.66877003038665	0.335191490071832	0.283333333333333	0	0	0	167.842249085195	167.942226630403	0.0999775452073663	0.283393078949302
29539.25	100	219	1	91	2	2	90	1	2	0	2	67.5	112.5	-2.90413943308833	-0.424450864984045	0.216666666666667	0	0	0	168.158899989445	168.258884361247	0.0999843718018383	0.216673359042034
29589.25	100	220	1	92	2	2	90	1	2	0	1	22.5	157.5	-2.58659225934333	-2.01117579227117	0.1	0	0	0	168.358907255111	168.458886994515	0.0999797394033521	0.100022893864661
29680.75	100	221	1	93	2	2	90	1	2	0	1	112.5	157.5	2.90184818552762	2.1603977866135	0.266666666666667	0	0	0	168.725576432887	168.825565924868	0.0999894919805229	0.26668943837285
29772.5	100	222	1	94	2	2	90	1	2	0	2	157.5	112.5	-1.25291780886457	2.2335752684302	0.266666666666667	0	0	0	169.09225463192	169.192246317863	0.099991685943678	0.266688707051799
29872.5	100	223	1	95	2	2	90	1	2	0	1	112.5	67.5	-0.933668272508738	-1.60204139705355	0.3	0	0	0	169.492283303756	169.592254022369	0.0999707186128944	0.300036985892802
29939.25	100	224	1	96	2	2	90	1	2	0	1	22.5	157.5	1.89238227429461	-0.298658711771485	0.166666666666667	0	0	0	169.758943972876	169.858926150249	0.0999821773730218	0.166689950507134
30005.75	100	225	1	97	2	2	90	1	2	0	2	67.5	112.5	2.71551693153271	-2.33095843657564	0.166666666666667	0	0	0	170.025639506523	170.125622902997	0.099983396474272	0.166713356273249
30101.75	100	226	1	98	2	2	90	1	2	0	2	67.5	22.5	0.664352839117574	-2.61616168013803	0.283333333333333	0	0	0	170.408951616148	170.508936963277	0.0999853471294045	0.283328713150695
30197.5	100	227	1	99	2	2	90	1	2	0	2	67.5	112.5	0.389382035907837	1.99792401589954	0.283333333333333	0	0	0	170.792294445913	170.89227784262	0.0999833967071027	0.283357482636347
30268.25	100	228	1	100	2	2	90	1	2	0	1	22.5	157.5	-0.106266157836423	-2.25685128775109	0.183333333333333	0	0	0	171.075637543807	171.175651416648	0.100013872841373	0.183359701186419
30330.75	100	229	1	101	2	2	90	1	2	0	1	112.5	157.5	-2.56392460229331	1.95171028165529	0.15	0	0	0	171.325674054446	171.425655012717	0.0999809582717717	0.15002263779752
30422.5	100	230	1	102	2	2	90	1	2	0	2	67.5	112.5	-2.3809111470398	-3.00779157958089	0.266666666666667	0	0	0	171.692320314236	171.79230956221	0.0999892479740083	0.266665301518515
30476.75	100	231	1	103	2	2	90	1	2	0	2	157.5	112.5	-0.99300276515411	0.391630962291992	0.116666666666667	0	0	0	171.908997086808	172.009007789893	0.10001070308499	0.116687524598092
30526.75	100	232	1	104	2	2	90	1	2	3	1	112.5	67.5	1.79498712009907	2.86996225575653	0.1	0	0	0	172.109000695171	172.208985798294	0.09998510312289	0.0999929052777588
30581	100	233	1	105	2	2	90	1	2	3	1	22.5	157.5	-0.480155302116703	2.31315906912212	0.116666666666667	0	0	0	172.325680637266	172.425653793849	0.0999731565825641	0.116694838972762
30681	100	234	1	106	2	2	90	1	2	3	2	157.5	112.5	2.9472355370829	-2.64892907670452	0.3	0	0	0	172.72568882932	172.825669787591	0.0999809582717717	0.300035035470501
30739.25	100	235	1	107	2	2	90	1	2	2	-1	45	90	1.07540659356262	2.96260831167445	0.133333333333333	0	0	0	172.9590316955	173.059011434903	0.0999797394033521	0.133361907908693
30810	100	236	1	108	2	2	90	1	2	3	2	67.5	112.5	-0.766675752886649	-1.9236733751776	0.183333333333333	0	0	0	173.242373818066	173.342357946094	0.0999841280281544	0.183362383162603
30885	100	237	1	109	2	2	90	1	2	3	2	157.5	22.5	1.57583137029691	1.90680091680408	0.2	0	0	0	173.542383253574	173.642361286329	0.0999780327547342	0.200025307480246
30964.25	100	238	1	110	2	2	90	1	2	3	1	22.5	67.5	0.178030103537	-3.06495313872228	0.216666666666667	0	0	0	173.859053662745	173.95903462125	0.0999809585046023	0.216692376416177
31051.75	100	239	1	111	2	2	90	1	2	3	2	67.5	22.5	-1.83982616994971	0.12069336708418	0.25	0	0	0	174.209056015592	174.309068913106	0.100012897513807	0.250021394342184
31139.25	100	240	1	112	2	2	90	1	2	0	2	67.5	22.5	1.11454099682067	2.86582188845269	0.25	0	0	0	174.55909762159	174.659074923024	0.0999773014336824	0.250028708484024
31201.75	100	241	1	113	2	2	90	1	2	0	1	112.5	67.5	-1.1221206445572	0.617922176043729	0.15	0	0	0	174.809067815775	174.909052675357	0.0999848595820367	0.14999289275147
31260	100	242	1	114	2	2	90	1	2	0	2	67.5	112.5	-1.10447847409803	2.13112473970777	0.133333333333333	0	0	0	175.042409219313	175.142392615788	0.099983396474272	0.133356543956324
31322.5	100	243	1	115	2	2	90	1	2	0	2	157.5	22.5	2.15588719131243	-0.1862633874177	0.15	0	0	0	175.292419885984	175.392400600715	0.0999807147309184	0.150027270196006
31393.5	100	244	1	116	2	2	90	1	2	0	2	157.5	22.5	2.44593534143405	-3.00023267942438	0.183333333333333	0	0	0	175.575758351479	175.675739309983	0.0999809585046023	0.183357750764117
31443.5	100	245	1	117	2	2	90	1	2	0	2	157.5	112.5	1.18331809380789	-2.13621779749082	0.1	0	0	0	175.775761959841	175.875743405893	0.0999814460519701	0.100022649858147
31497.5	100	246	1	118	2	2	90	1	2	0	1	22.5	67.5	3.03979384297473	1.70193805109399	0.116666666666667	0	0	0	175.992436294444	176.092419690918	0.099983396474272	0.11669288855046
31556	100	247	1	119	2	2	90	1	2	0	2	157.5	112.5	-1.57699507880117	0.00106483745775154	0.133333333333333	0	0	0	176.225803785492	176.32575548673	0.0999517012387514	0.133384094573557
31631	100	248	1	120	2	2	90	1	2	0	2	67.5	112.5	-2.51288939120675	2.26291806541639	0.2	0	0	0	176.525783719961	176.625766385114	0.0999826651532203	0.200028233230114
31681	100	249	1	121	2	2	90	1	2	0	2	157.5	22.5	-1.29523418151227	2.76344091832711	0.1	0	0	0	176.725794398692	176.825774382101	0.0999799834098667	0.100028013577685
31776.75	100	250	1	122	2	2	90	1	2	0	1	22.5	157.5	1.86861397177919	1.01169832546145	0.283333333333333	0	0	0	177.109131620964	177.209109409712	0.0999777887482196	0.283357238862664
31864.25	100	251	1	123	2	2	90	1	2	0	2	157.5	112.5	1.86719512168498	0.742656923172576	0.25	0	0	0	177.459143969929	177.559124928201	0.0999809582717717	0.250034560216591
31951.75	100	252	1	124	2	2	90	1	2	0	1	112.5	67.5	-2.65189836297494	0.54751022400615	0.25	0	0	0	177.809186795028	177.909161902033	0.099975107004866	0.250061866827309
32026.75	100	253	1	125	2	2	90	1	2	0	2	157.5	112.5	2.83050001878154	-1.78695920767438	0.2	0	0	0	178.109188916162	178.209182308987	0.0999933928251266	0.200027014128864
32081	100	254	1	126	2	2	90	1	2	0	1	112.5	67.5	-2.65983338345698	-0.492403021920987	0.116666666666667	0	0	0	178.325847890694	178.425816414878	0.099968524184078	0.116665581706911
32151.75	100	255	1	127	2	2	90	1	2	0	2	157.5	112.5	-0.546405952463612	1.40279895349505	0.183333333333333	0	0	0	178.609175628517	178.709162194515	0.0999865659978241	0.183359213639051
32218.5	100	256	1	128	2	2	90	1	2	0	2	157.5	112.5	-1.97645554138476	1.96333235160742	0.166666666666667	0	0	0	178.875851657474	178.975830177777	0.099978520302102	0.166689462959766
32306	100	257	1	129	2	2	90	1	2	0	2	67.5	112.5	0.979378622533885	2.03354272677128	0.25	0	0	0	179.225862299791	179.325839844765	0.0999775449745357	0.25003212201409
32389.25	100	258	1	130	2	2	90	1	2	0	1	112.5	157.5	0.439323454304088	-0.425068196250314	0.233333333333333	1	0	0	179.559209042694	179.659184149699	0.099975107004866	0.233369197929278
32468.5	100	259	1	131	2	2	90	1	2	0	1	112.5	67.5	0.794627038523263	2.5017418426809	0.216666666666667	0	0	0	179.87587798899	179.975856021745	0.0999780327547342	0.216693839291111
32560	100	260	1	132	2	2	90	1	2	3	2	157.5	22.5	0.87921165335367	-3.0479337357701	0.266666666666667	0	0	0	180.242560820188	180.342537146294	0.0999763261061162	0.266704798443243
32614.25	100	261	1	133	2	2	90	1	2	3	2	67.5	112.5	0.288525023642862	1.98331660287546	0.116666666666667	0	0	0	180.459244663129	180.559212943539	0.0999682804103941	0.11670751683414
32697.5	100	262	1	134	2	2	90	1	2	3	2	157.5	112.5	-0.584212968284666	-2.09497045948605	0.233333333333333	0	0	0	180.792571413564	180.892551884521	0.0999804709572345	0.233358470024541
32764.25	100	263	1	135	2	2	90	1	2	3	1	112.5	67.5	-1.69166882476922	-1.01524912989739	0.166666666666667	0	0	0	181.059242810123	181.159227913478	0.0999851033557206	0.16669092560187
37026.75	100	264	2	0	1	1	0	2	2	3	2	157.5	22.5	1.56280509672364	-0.120604499299486	0.2	0	0	0	198.109702866757	198.209683581488	0.0999807147309184	-1
37101.75	100	265	2	1	1	1	0	2	2	3	1	22.5	67.5	1.58144619293493	-1.09640123086521	0.2	0	0	0	198.409727662336	198.509695942514	0.0999682801775634	0.200044080847874
37176.75	100	266	2	2	1	1	0	2	2	3	1	112.5	67.5	-2.2273739234602	-0.129649950553001	0.2	0	0	0	198.709719787119	198.809696356999	0.0999765698798001	0.200023844605312
37251.75	100	267	2	3	1	1	0	2	2	3	2	157.5	112.5	2.02629022322962	0.723206187955973	0.2	0	0	0	199.009729466401	199.109704573406	0.099975107004866	0.200033109402284
37326.75	100	268	2	4	1	1	0	2	2	0	2	157.5	22.5	-1.8774840993044	2.99116133758817	0.2	0	0	0	199.309735488612	199.409715959337	0.0999804707244039	0.200030915206298
37401.75	100	269	2	5	1	1	0	2	2	0	2	157.5	22.5	-2.27289552412326	1.18568593999017	0.2	0	0	0	199.609743461013	199.709757577628	0.100014116615057	0.200027501676232
37476.75	100	270	2	6	1	1	0	2	2	0	1	112.5	157.5	1.55363790166607	0.0537195822345473	0.2	0	0	0	199.909749483224	200.009732635925	0.0999831527005881	0.199991905596107
37551.75	100	271	2	7	1	1	0	2	2	0	2	67.5	22.5	1.98040063494953	1.95395682236235	0.2	0	0	0	200.209764038678	200.30974255898	0.099978520302102	0.200031402753666
37627	100	272	2	8	1	1	0	2	2	0	2	67.5	22.5	-1.23927849912159	0.0445358890334497	0.2	0	0	0	200.509790540673	200.609751506709	0.0999609660357237	0.200047981692478
37702	100	273	2	9	1	1	0	2	2	0	1	22.5	67.5	-0.720215171225783	-1.92748155980562	0.2	0	0	0	200.809807778103	200.90976703749	0.0999592593871057	0.200056271394715
37777	100	274	2	10	1	1	0	2	2	0	2	67.5	112.5	1.47169909590813	1.06960437507275	0.2	0	0	0	201.109784543049	201.209769646171	0.09998510312289	0.200017505558208
37852	100	275	2	11	1	1	0	2	2	0	1	22.5	157.5	-1.29301374073408	-1.44210241957514	0.2	0	0	0	201.409795197425	201.50977615593	0.0999809585046023	0.20002555125393
37927	100	276	2	12	1	1	0	2	2	0	2	157.5	112.5	-0.346855870485486	-1.80794823015715	0.2	0	0	0	201.709802194731	201.809779739939	0.0999775452073663	0.200026038801298
38002	100	277	2	13	1	1	0	2	2	0	1	112.5	67.5	3.09266182077864	-0.698521792862485	0.2	0	0	0	202.009804072091	202.109789175447	0.0999851033557206	0.20002433215268
38077	100	278	2	14	1	1	0	2	2	0	2	157.5	22.5	-2.32675639849193	-0.0952952964033247	0.2	0	0	0	202.309815701796	202.409797879402	0.0999821776058525	0.200026526348665
38152	100	279	2	15	1	1	0	2	2	0	1	22.5	67.5	2.78576917825829	-2.93901720016485	0.2	0	0	0	202.609844398219	202.709819505224	0.099975107004866	0.200046518817544
38227	100	280	2	16	1	1	0	2	2	0	2	157.5	112.5	2.43304360801472	-0.874899542788273	0.2	0	0	0	202.909842130728	203.009814799763	0.0999726690351963	0.200022625504062
38302	100	281	2	17	1	1	0	2	2	0	1	22.5	67.5	3.12127528898336	2.89663793282073	0.2	0	0	0	203.209846690064	203.309819846647	0.0999731565825641	0.200031890301034
38377	100	282	2	18	1	1	0	2	2	0	1	22.5	157.5	-1.60074370772255	0.0618256554044025	0.2	0	0	0	203.509848811198	203.609828306828	0.0999794956296682	0.200028964551166
38452	100	283	2	19	1	1	0	2	2	0	1	22.5	67.5	-1.89603823218479	-0.829430984800555	0.2	0	0	0	203.809856296284	203.90983798611	0.099981689825654	0.20002798945643
38527	100	284	2	20	1	1	0	2	2	0	2	157.5	112.5	-0.392646477285235	-0.271083513988323	0.2	0	0	0	204.109864756465	204.209847421618	0.0999826651532203	0.20002677035518
38602	100	285	2	21	1	1	0	2	2	0	1	112.5	67.5	-2.06689360436807	1.24631046647964	0.2	0	0	0	204.409868096467	204.509869047441	0.100000950973481	0.200020674848929
38677	100	286	2	22	1	1	0	2	2	0	2	67.5	22.5	2.66812240720231	0.0177180201157787	0.2	0	0	0	204.709884114796	204.809863610426	0.0999794956296682	0.200015067355707
38752	100	287	2	23	1	1	0	2	2	0	2	67.5	22.5	0.445852002683509	-0.597181520639259	0.2	0	0	0	205.009892331203	205.109874021029	0.099981689825654	0.200028720777482
38827	100	288	2	24	1	1	0	2	2	0	1	112.5	67.5	2.14830529128418	0.506189583421934	0.2	0	0	0	205.309897378087	205.409881749889	0.0999843718018383	0.200023357057944
38902	100	289	2	25	1	1	0	2	2	0	1	112.5	67.5	-0.0540297174895144	-1.41080825696109	0.2	0	0	0	205.609907301143	205.709894111147	0.0999868100043386	0.20002555125393
38977	100	290	2	26	1	1	0	2	2	0	2	67.5	22.5	-0.00872954800781489	1.14788358664667	0.2	0	0	0	205.909915761324	206.009895744501	0.099979983177036	0.200021650176495
39052	100	291	2	27	1	1	0	2	2	0	2	67.5	22.5	2.86415816042611	-0.477736353622547	0.2	0	0	0	206.209924709052	206.309905667556	0.0999809585046023	0.200028964551166
39127	100	292	2	28	1	1	0	2	2	0	2	67.5	22.5	-2.35597806163356	1.29068647716971	0.2	0	0	0	206.509952430381	206.609936070628	0.0999836402479559	0.200046762824059
39202	100	293	2	29	1	1	0	2	2	0	2	157.5	112.5	-1.72415742647303	-0.954140315276415	0.2	0	0	0	206.809963084757	206.909935753793	0.0999726690351963	0.200027014128864
39277	100	294	2	30	1	1	0	2	2	0	1	112.5	157.5	2.2394217922389	0.869863488605206	0.2	0	0	0	207.109949602047	207.209928366356	0.0999787643086165	0.200013848254457
39352	100	295	2	31	1	1	0	2	2	0	2	157.5	22.5	0.560075345609721	-1.90877811976254	0.2	0	0	0	207.409958550008	207.509935607435	0.0999770574271679	0.200030183652416
39427	100	296	2	32	1	1	0	2	2	0	1	112.5	157.5	1.7718910187624	-0.0932271272445542	0.2	0	0	0	207.709960427368	207.809943092288	0.0999826649203897	0.200024819932878
39502	100	297	2	33	1	1	0	2	2	0	1	112.5	157.5	3.11059005949326	-0.0481824184833552	0.2	0	0	0	208.009967424674	208.109952284023	0.0999848593492061	0.20002433238551
39577	100	298	2	34	1	1	0	2	2	3	2	67.5	22.5	1.70867112870331	-3.04604125600991	0.2	0	0	0	208.309976616176	208.409959281329	0.0999826651532203	0.20002433215268
39652	100	299	2	35	1	1	0	2	2	3	1	112.5	157.5	0.691492483842692	-2.34762294752585	0.2	0	0	0	208.60998873366	208.709966522409	0.0999777887482196	0.200029452331364
39727	100	300	2	36	1	1	0	2	2	3	2	67.5	112.5	1.57950456575038	-0.249295863497705	0.2	0	0	0	208.90999012324	209.009976445464	0.0999863222241402	0.200023600831628
39802	100	301	2	37	1	1	0	2	2	2	-1	135	0	0.202160368622446	1.66617324825968	0.2	0	0	0	209.209999802522	209.309982467676	0.0999826651532203	0.200023357057944
39877	100	302	2	38	1	1	0	2	2	3	2	157.5	112.5	-1.76536275087141	1.95706898029734	0.2	0	0	0	209.510009725578	209.609993122052	0.099983396474272	0.200027257902548
39952	100	303	2	39	1	1	0	2	2	3	1	22.5	157.5	-1.09823724758308	2.16085977434351	0.2	0	0	0	209.81001891708	209.909998168936	0.0999792518559843	0.200025795027614
40027	100	304	2	40	1	1	0	2	2	3	1	112.5	67.5	2.66866931775637	1.92329851993357	0.2	0	0	0	210.110024451744	210.210008335765	0.0999838840216398	0.200026282807812
40102	100	305	2	41	1	1	0	2	2	3	2	157.5	22.5	0.16655292776365	2.93242197286661	0.2	0	0	0	210.410036812769	210.51001460175	0.0999777889810503	0.200028477003798
40177	100	306	2	42	1	1	0	2	2	0	1	112.5	67.5	-2.93993097011808	-1.91172247497533	0.2	0	0	0	210.710054293973	210.810032570502	0.0999782765284181	0.200039692223072
40252	100	307	2	43	1	1	0	2	2	0	2	157.5	22.5	0.889263342576897	-2.1925939138458	0.2	0	0	0	211.010082258843	211.110045419307	0.0999631604645401	0.200049688341096
40327	100	308	2	44	1	1	0	2	2	0	1	22.5	67.5	3.10154065274137	-2.27047814389683	0.2	0	0	0	211.310070483014	211.410052660387	0.0999821773730218	0.200025063706562
40402	100	309	2	45	1	1	0	2	2	0	1	22.5	157.5	0.791839370719178	1.83840152376513	0.2	0	0	0	211.610071385046	211.710047223372	0.0999758383259177	0.200018724659458
40477	100	310	2	46	1	1	0	2	2	0	1	22.5	67.5	-0.0492447809467036	-1.9500618263499	0.2	0	0	0	211.910108858487	212.010112491203	0.100003632716835	0.200061635114253
40552	100	311	2	47	1	1	0	2	2	0	1	112.5	67.5	-0.276659153000976	-1.15118799157732	0.2	0	0	0	212.210086111212	212.310069263913	0.0999831527005881	0.199973620008677
40627	100	312	2	48	1	1	0	2	2	0	1	112.5	157.5	0.821220335001391	-2.27163167077656	0.2	0	0	0	212.510090426542	212.610092840157	0.100002413615584	0.200021162629128
40702	100	313	2	49	1	1	0	2	2	0	2	157.5	112.5	0.721826403776246	2.56875318213041	0.2	0	0	0	212.810116440989	212.910096424166	0.099979983177036	0.200023600831628
40777	100	314	2	50	1	1	0	2	2	0	2	67.5	22.5	-0.0731797825652207	-1.82578212000268	0.2	0	0	0	213.110122950748	213.210104153026	0.0999812022782862	0.200026526581496
40852	100	315	2	51	1	1	0	2	2	0	1	112.5	157.5	2.53499255518949	-1.66211961451633	0.2	0	0	0	213.410129948054	213.510113344761	0.0999833967071027	0.200025795027614
40927	100	316	2	52	1	1	0	2	2	0	2	157.5	22.5	2.43037319318269	0.593002744534912	0.2	0	0	0	213.710133775836	213.810137408553	0.100003632716835	0.200020431075245
41002	100	317	2	53	1	1	0	2	2	0	2	157.5	22.5	1.77298082799682	1.27633089798196	0.2	0	0	0	214.01014589332	214.110127583146	0.099981689825654	0.20000848476775
41077	100	318	2	54	1	1	0	2	2	0	1	22.5	67.5	1.41633100080496	-2.90004355275496	0.2	0	0	0	214.310156547697	214.410140675725	0.0999841280281544	0.200028964551166
41152	100	319	2	55	1	1	0	2	2	3	1	112.5	157.5	1.37458119811828	0.501838670156045	0.2	0	0	0	214.610165495425	214.710142553085	0.0999770576599985	0.200024819700047
41227	100	320	2	56	1	1	0	2	2	3	2	67.5	112.5	-1.90128271344231	0.187895404099342	0.2	0	0	0	214.91017176141	215.01015125704	0.0999794956296682	0.20002920832485
41302	100	321	2	57	1	1	0	2	2	3	1	22.5	67.5	-0.0592755262318865	0.340679144292708	0.2	0	0	0	215.210175832966	215.310160448775	0.0999846158083528	0.200024575926363
41377	100	322	2	58	1	1	0	2	2	1	-1	0	45	-1.46631060462911	0.0975701616232594	0.2	0	0	0	215.510180636076	215.610165007878	0.0999843718018383	0.200020187301561
41452	100	323	2	59	1	1	0	2	2	3	1	112.5	67.5	-1.85485297203236	1.8704064766046	0.2	0	0	0	215.810190559132	215.910175906261	0.0999853471294045	0.20002555125393
41527	100	324	2	60	1	1	0	2	2	3	2	157.5	22.5	2.82749500168567	2.02651311598362	0.2	1	0.591951698530465	1	216.110201701289	216.210180465365	0.0999787640757859	0.200025795027614
41602	100	325	2	61	1	1	0	2	2	3	1	22.5	157.5	-1.69074759499181	2.26741977212773	0.2	0	0	0	216.410209186142	216.510190632194	0.0999814460519701	0.200028720777482
41677	100	326	2	62	1	1	0	2	2	3	2	67.5	22.5	1.97923384779758	-1.06277923530528	0.2	0	0	0	216.7102144768	216.810198604828	0.0999841280281544	0.200023844605312
41752	100	327	2	63	1	1	0	2	2	0	2	157.5	112.5	2.09825114469487	-2.87937132567076	0.2	0	0	0	217.010226594284	217.110235590721	0.100008996436372	0.20002798945643
41827	100	328	2	64	1	1	0	2	2	0	2	67.5	112.5	-0.598702970709525	-0.184458571232951	0.2	0	0	0	217.310243587708	217.410216256743	0.0999726690351963	0.200007996987551
41902	100	329	2	65	1	1	0	2	2	0	2	157.5	112.5	-2.98760527159217	-2.97468389691723	0.2	0	0	0	217.610265701311	217.710224716924	0.0999590156134218	0.200049444567412
41977	100	330	2	66	1	1	0	2	2	0	1	112.5	67.5	-2.0272708600285	0.857822061654708	0.2	0	0	0	217.910250511952	218.010232933331	0.0999824213795364	0.200025795027614
42052	100	331	2	67	1	1	0	2	2	0	1	112.5	157.5	0.913635135574911	-0.126265134690249	0.2	0	0	0	218.210260678781	218.310241881059	0.0999812022782862	0.200027745449916
42127	100	332	2	68	1	1	0	2	2	0	2	67.5	22.5	1.31536430574296	1.55021630590846	0.2	0	0	0	218.51026426279	218.610249609919	0.0999853471294045	0.200022381730378
42202	100	333	2	69	1	1	0	2	2	0	2	67.5	112.5	-0.911976403584346	2.09397331615479	0.2	0	0	0	218.810274185846	218.910255388124	0.0999812022782862	0.200024575926363
42277	100	334	2	70	1	1	0	2	2	0	1	22.5	157.5	0.624692347465151	1.46112196094303	0.2	0	0	0	219.11028581555	219.210269212024	0.099983396474272	0.2000304274261
42352	100	335	2	71	1	1	0	2	2	0	1	22.5	157.5	-2.11749703263974	1.21626235506455	0.2	0	0	0	219.41029305663	219.510273527587	0.0999804709572345	0.200023844605312
42427	100	336	2	72	1	1	0	2	2	0	1	112.5	157.5	0.991658061102221	-1.05016008101671	0.2	0	0	0	219.710296396865	219.810281743994	0.0999853471294045	0.200022869277745
42502	100	337	2	73	1	1	0	2	2	0	1	112.5	67.5	1.7701912945702	1.42097066190459	0.2	0	0	0	220.010304125724	220.110313609941	0.100009484216571	0.200022381730378
42577	100	338	2	74	1	1	0	2	2	0	1	22.5	157.5	1.77584116752618	0.875812299327068	0.2	0	0	0	220.310339892516	220.410318900598	0.0999790080823004	0.200026282574981
42652	100	339	2	75	1	1	0	2	2	3	1	112.5	67.5	0.395197630178681	-1.76541390851678	0.2	0	0	0	220.610337869031	220.710318583529	0.0999807144980878	0.200018968433142
42727	100	340	2	76	1	1	0	2	2	3	2	157.5	112.5	0.4617669770112	2.31885073458911	0.2	0	0	0	220.910332432017	221.010309489444	0.0999770574271679	0.200013848487288
42802	100	341	2	77	1	1	0	2	2	3	2	157.5	22.5	-3.12856381345858	-0.171631507507326	0.2	0	0	0	221.210338210221	221.310322582023	0.0999843718018383	0.200028720777482
42877	100	342	2	78	1	1	0	2	2	1	-1	0	45	-1.46769991379064	0.19514821210838	0.2	0	0	0	221.51034471998	221.610360055696	0.100015335716307	0.200022137956694
42952	100	343	2	79	1	1	0	2	2	3	1	22.5	67.5	-0.587597280897476	-1.89999523606695	0.2	0	0	0	221.810374147724	221.910358031979	0.0999838842544705	0.200014092028141
43027	100	344	2	80	1	1	0	2	2	3	2	67.5	22.5	-2.68667925829962	2.08075494761781	0.2	0	0	0	222.110363590764	222.210344061721	0.0999804709572345	0.200005558785051
43102	100	345	2	81	1	1	0	2	2	3	2	67.5	112.5	-2.67987112408556	-0.164911658870722	0.2	0	0	0	222.410367906326	222.510353253223	0.0999853468965739	0.200023844605312
43177	100	346	2	82	1	1	0	2	2	3	1	22.5	157.5	2.87365097286761	1.52224636152256	0.2	0	0	0	222.710377829382	222.810360250762	0.0999824213795364	0.200024576159194
43252	100	347	2	83	1	1	0	2	2	0	2	157.5	22.5	1.15313146886612	2.14989279684281	0.2	0	0	0	223.010388239985	223.110394310905	0.100006070919335	0.200027989223599
43327	100	348	2	84	1	1	0	2	2	0	2	157.5	112.5	0.392153247679868	0.119897338607753	0.2	0	0	0	223.310401576338	223.410382291069	0.0999807147309184	0.200007265433669
43402	100	349	2	85	1	1	0	2	2	0	1	22.5	157.5	1.19034951882209	0.535248662410836	0.2	0	0	0	223.610406866996	223.710371246561	0.0999643795657903	0.200024575926363
43477	100	350	2	86	1	1	0	2	2	0	1	22.5	157.5	2.31755548286153	-0.230244556633896	0.2	0	0	0	223.910399967339	224.010382632259	0.0999826649203897	0.200028720777482
43552	100	351	2	87	1	1	0	2	2	0	1	112.5	67.5	0.847918786050674	-1.64847796263438	0.2	0	0	0	224.210407208418	224.310389142018	0.0999819335993379	0.200024576159194
43627	100	352	2	88	1	1	0	2	2	0	1	22.5	157.5	-0.458575466716948	1.87927466718456	0.2	0	0	0	224.510414937045	224.610429785214	0.100014848168939	0.200025795027614
43702	100	353	2	89	1	1	0	2	2	0	1	22.5	67.5	-0.675940131259883	2.6432971072576	0.2	0	0	0	224.810449484969	224.910434344318	0.0999848593492061	0.200019699754193
43777	100	354	2	90	1	1	0	2	2	0	2	157.5	22.5	2.95624536989124	-2.92319255106066	0.2	0	0	0	225.110457213828	225.210443536052	0.0999863222241402	0.200022869510576
43852	100	355	2	91	1	1	0	2	2	0	2	157.5	22.5	2.85318734070875	-2.93392433225756	0.2	0	0	0	225.410465674009	225.510423714295	0.0999580402858555	0.200022137956694
43927	100	356	2	92	1	1	0	2	2	0	1	22.5	67.5	-2.18734634956064	-0.189410825884197	0.2	0	0	0	225.710448046448	225.810434368672	0.0999863222241402	0.20002433215268
44002	100	357	2	93	1	1	0	2	2	0	2	157.5	112.5	2.00022988774821	-2.63969062724967	0.2	0	0	0	226.010461382801	226.110471598571	0.100010215770453	0.200027014128864
44077	100	358	2	94	1	1	0	2	2	0	2	67.5	112.5	0.896638342043972	-0.386163272831005	0.2	0	0	0	226.310491054552	226.410449338611	0.0999582840595394	0.20001945598051
44152	100	359	2	95	1	1	0	2	2	0	2	67.5	112.5	-0.982592544826508	-0.993702503372385	0.2	0	0	0	226.610475621419	226.710459017893	0.099983396474272	0.200026282807812
44227	100	360	2	96	1	1	0	2	2	0	1	112.5	67.5	1.22213624184562	-1.62799367651332	0.2	0	0	0	226.9104840816	227.010466746753	0.0999826651532203	0.200025063706562
44302	100	361	2	97	1	1	0	2	2	0	2	157.5	112.5	-1.41620967028072	1.73106952084631	0.2	0	0	0	227.210492054233	227.310476669809	0.0999846155755222	0.200025307480246
44377	100	362	2	98	1	1	0	2	2	0	2	67.5	112.5	1.54315112181547	0.512586049396718	0.2	0	0	0	227.510499295313	227.610476840287	0.0999775449745357	0.200022625504062
44452	100	363	2	99	1	1	0	2	2	0	1	22.5	157.5	0.37042810535536	2.64951678268897	0.2	0	0	0	227.810506292619	227.910487738671	0.0999814460519701	0.200029452331364
44527	100	364	2	100	1	1	0	2	2	0	1	112.5	157.5	0.534175763625812	-1.91999729551608	0.2	0	0	0	228.110512558604	228.210494492203	0.0999819335993379	0.200024819932878
44602	100	365	2	101	1	1	0	2	2	0	2	157.5	22.5	-2.78676557022956	-0.750954564953896	0.2	0	0	0	228.410521993879	228.510500758188	0.0999787643086165	0.200027501676232
44677	100	366	2	102	1	1	0	2	2	0	1	112.5	157.5	2.53363726711457	0.734934349946402	0.2	0	0	0	228.710542400833	228.810525065986	0.0999826651532203	0.200041642645374
44752	100	367	2	103	1	1	0	2	2	0	2	157.5	112.5	2.86504559473598	1.71390028129222	0.2	0	0	0	229.010547203943	229.110534501262	0.0999872973188758	0.200022137956694
44827	100	368	2	104	1	1	0	2	2	0	1	22.5	157.5	1.64042202157141	-0.453121906703065	0.2	0	0	0	229.310558833648	229.410539304372	0.0999804707244039	0.20002433238551
44902	100	369	2	105	1	1	0	2	2	3	1	22.5	67.5	-1.29861953672274	-1.9728747750976	0.2	0	0	0	229.61056558718	229.71054581413	0.09998022695072	0.200026282807812
44977	100	370	2	106	1	1	0	2	2	3	2	157.5	112.5	1.39819634076676	-0.71884593517224	0.2	0	0	0	229.910574291134	230.010557687609	0.099983396474272	0.200028477003798
45052	100	371	2	107	1	1	0	2	2	3	1	112.5	67.5	-2.41011343055734	0.427786280724987	0.2	0	0	0	230.210581532214	230.310567366891	0.0999858346767724	0.200023844605312
45127	100	372	2	108	1	1	0	2	2	2	-1	135	0	0.292255920148299	2.93609675917819	0.2	0	0	0	230.510589748621	230.610573145095	0.099983396474272	0.200022381730378
45202	100	373	2	109	1	1	0	2	2	3	1	112.5	157.5	-0.97161354499457	0.949094563679688	0.2	0	0	0	230.81059625838	230.910577216884	0.0999809585046023	0.20002311328426
45277	100	374	2	110	1	1	0	2	2	3	1	22.5	157.5	-0.18104269324625	2.16460573267336	0.2	0	0	0	231.110606181435	231.210590309463	0.0999841280281544	0.200028964551166
45352	100	375	2	111	1	1	0	2	2	3	2	67.5	112.5	-1.32202398424055	2.09713082938286	0.2	0	0	0	231.410616592038	231.510600476293	0.0999838842544705	0.200026282574981
45427	100	376	2	112	1	1	0	2	2	3	2	157.5	22.5	-2.696985584881	-0.448423354915946	0.2	0	0	0	231.710624564672	231.810608936474	0.0999843718018383	0.200024088378996
45502	100	377	2	113	1	1	0	2	2	0	2	67.5	112.5	-0.407651125576219	0.0377412086985509	0.2	0	0	0	232.010633024853	232.110612764256	0.0999797394033521	0.200024088378996
45577	100	378	2	114	1	1	0	2	2	0	2	157.5	22.5	-1.64942700303946	2.09603686597689	0.2	0	0	0	232.310628075618	232.410608546343	0.0999804707244039	0.200015311362222
45652	100	379	2	115	1	1	0	2	2	0	1	22.5	67.5	-2.04077067904546	1.40266445719063	0.2	0	0	0	232.610637023346	232.710626027547	0.0999890042003244	0.200028477003798
45727	100	380	2	116	1	1	0	2	2	0	2	157.5	112.5	-1.05885997669156	-0.630493204967908	0.2	0	0	0	232.910653041676	233.010666182963	0.100013141287491	0.200027014128864
45802	100	381	2	117	1	1	0	2	2	0	2	67.5	112.5	-2.35908221928417	-1.95586475761309	0.2	0	0	0	233.210666134255	233.310668547871	0.100002413615584	0.199999951291829
45877	100	382	2	118	1	1	0	2	2	0	1	112.5	157.5	-3.00248758491152	1.45564799009291	0.2	1	0	0	233.510675569531	233.610652870964	0.0999773014336824	0.200007021659985
45952	100	383	2	119	1	1	0	2	2	0	2	67.5	112.5	2.97680509938491	-1.3041089623773	0.2	0	0	0	233.810685736593	233.910664988216	0.0999792516231537	0.2000328656286
46027	100	384	2	120	1	1	0	2	2	0	1	22.5	157.5	-2.7942270691736	-1.47764245422447	0.2	0	0	0	234.110692977672	234.210675642826	0.0999826651532203	0.20002798945643
46102	100	385	2	121	1	1	0	2	2	0	1	112.5	67.5	2.46973520244583	-1.56530201301037	0.2	0	0	0	234.410698024556	234.510679958155	0.0999819335993379	0.200022381730378
46177	100	386	2	122	1	1	0	2	2	0	2	67.5	22.5	-0.50418452013872	1.173282664365	0.2	0	0	0	234.71070307144	234.810714262305	0.100011190865189	0.20002311328426
46252	100	387	2	123	1	1	0	2	2	0	2	67.5	22.5	-2.38403501487216	0.920170026367356	0.2	0	0	0	235.010733718285	235.11071467679	0.0999809585046023	0.20001945598051
46327	100	388	2	124	1	1	0	2	2	0	1	22.5	67.5	-0.446233146882928	2.74568421362327	0.2	0	0	0	235.310729012592	235.410702900728	0.0999738881364465	0.200014335801825
46402	100	389	2	125	1	1	0	2	2	0	1	112.5	67.5	0.0449779356234621	0.562374674445382	0.2	0	0	0	235.610731621506	235.710713311331	0.099981689825654	0.200028720777482
46477	100	390	2	126	1	1	0	2	2	0	1	112.5	157.5	-2.79196409807209	-0.103599047257203	0.2	0	0	0	235.910738618812	236.01071982109	0.0999812022782862	0.200025307480246
46552	100	391	2	127	1	1	0	2	2	0	1	22.5	67.5	0.26854212069619	2.41530902322963	0.2	0	0	0	236.210733425571	236.310719504021	0.0999860784504563	0.200013604480773
46627	100	392	2	128	1	1	0	2	2	0	2	67.5	112.5	-3.09541410992036	-2.2707731769301	0.2	0	0	0	236.510748468805	236.610722112935	0.0999736441299319	0.200028964783996
46702	100	393	2	129	1	1	0	2	2	0	2	67.5	22.5	-1.26519787208303	0.559574851293764	0.2	0	0	0	236.810750833713	236.910730573116	0.0999797394033521	0.200028720777482
46777	100	394	2	130	1	1	0	2	2	0	1	22.5	157.5	1.32563390633868	3.06210553082803	0.2	0	0	0	237.110756611917	237.210754880914	0.0999982689972967	0.200026038801298
46852	100	395	2	131	1	1	0	2	2	0	2	67.5	112.5	2.16471867744554	-1.04889161273953	0.2	0	0	0	237.410765315872	237.510746030603	0.0999807147309184	0.200010434957221
46927	100	396	2	132	1	1	0	2	2	0	2	157.5	22.5	-2.02313724804309	-2.1855391473626	0.2	0	0	0	237.710774995154	237.810759123182	0.0999841280281544	0.200028964551166
47002	100	397	2	133	1	1	0	2	2	0	1	112.5	67.5	-0.58616096951946	-2.42670818929643	0.2	0	0	0	238.010783942882	238.110765389167	0.0999814462848008	0.200024819700047
47077	100	398	2	134	1	1	0	2	2	0	2	157.5	112.5	2.81117327663835	-2.96948440858049	0.2	0	0	0	238.310792647069	238.410773117794	0.0999804707244039	0.200027257902548
47152	100	399	2	135	1	1	0	2	2	0	1	22.5	67.5	-1.16183051566361	1.45985925014283	0.2	0	0	0	238.61080061947	238.710810591467	0.100009971996769	0.200027501676232
47227	100	400	2	136	1	1	0	2	2	0	1	112.5	157.5	-2.40038676200399	-0.550096718915464	0.2	0	0	0	238.910809323657	239.01079150103	0.0999821773730218	0.199998732190579
47302	100	401	2	137	1	1	0	2	2	0	2	67.5	112.5	-1.5907338727091	2.01414738525013	0.2	0	0	0	239.210815101862	239.310822147876	0.100007046014071	0.200023600831628
47377	100	402	2	138	1	1	0	2	2	0	2	67.5	22.5	2.29700809535318	2.10716014237359	0.2	0	0	0	239.510848674458	239.610832802486	0.0999841280281544	0.200026526581496
47452	100	403	2	139	1	1	0	2	2	0	2	67.5	112.5	-0.975545907351439	-2.97825217474035	0.2	0	0	0	239.810860060388	239.910841018893	0.0999809585046023	0.200027257902548
47527	100	404	2	140	1	1	0	2	2	3	1	22.5	157.5	1.03979416026336	-1.21539640802685	0.2	0	0	0	240.110871933866	240.210851917043	0.099979983177036	0.200030914973468
47602	100	405	2	141	1	1	0	2	2	3	2	67.5	22.5	2.75057160661218	-1.48377355333975	0.2	0	0	0	240.410857476061	240.510830144864	0.0999726688023657	0.200005559017882
47677	100	406	2	142	1	1	0	2	2	3	1	112.5	157.5	0.763950794769671	-1.48370546676978	0.2	0	0	0	240.710854477016	240.810873713577	0.100019236560911	0.20002433215268
47752	100	407	2	143	1	1	0	2	2	3	2	67.5	112.5	-1.90052268310672	-2.96078207102846	0.2	0	0	0	241.010892925784	241.110871446319	0.0999785205349326	0.200019212206826
50506.25	100	408	3	0	1	1	90	1	1	3	1	112.5	157.5	1.41594908404041	-0.00906131509015573	0.2	0	0	0	252.02782501583	252.127805974334	0.0999809585046023	-1
50581.25	100	409	3	1	1	1	90	1	1	3	1	112.5	67.5	0.392302755387146	1.94028888745434	0.2	0	0	0	252.327852005605	252.427816872718	0.0999648671131581	0.200046031270176
50656.25	100	410	3	2	1	1	90	1	1	3	2	157.5	22.5	-1.11865391220192	1.6334273185175	0.2	0	0	0	252.627842180198	252.72782313847	0.0999809582717717	0.200025307480246
50731.25	100	411	3	3	1	1	90	1	1	3	2	67.5	22.5	-0.0612048245218615	2.6204634745581	0.2	0	0	0	252.927850640379	253.027829160681	0.099978520302102	0.200027501909062
50806.25	100	412	3	4	1	1	90	1	1	0	2	157.5	112.5	0.130164491027147	-1.35773573380026	0.2	0	0	0	253.227859588107	253.327837864636	0.0999782765284181	0.2000304274261
50881.25	100	413	3	5	1	1	90	1	1	0	2	157.5	112.5	-2.65819488814226	-0.311587704455532	0.2	0	0	0	253.527863903437	253.627846812364	0.0999829089269042	0.200026038801298
50956.25	100	414	3	6	1	1	90	1	1	0	2	157.5	22.5	-0.322323604246441	2.68714408698196	0.2	0	0	0	253.827874314273	253.927857710747	0.099983396474272	0.200027501909062
51031.25	100	415	3	7	1	1	90	1	1	0	1	112.5	67.5	2.20866193107463	-0.422845662984143	0.2	0	0	0	254.127878873376	254.22786812135	0.0999892479740083	0.200021162629128
51106.25	100	416	3	8	1	1	90	1	1	0	2	157.5	22.5	0.0194182172064572	-2.98316903380403	0.2	0	0	0	254.427936095512	254.527904375922	0.0999682804103941	0.200067974161357
51181.25	100	417	3	9	1	1	90	1	1	0	2	157.5	112.5	-2.12574422348922	0.943559811039078	0.2	0	0	0	254.72790066991	254.82787772757	0.0999770576599985	0.199996293988079
51256.25	100	418	3	10	1	1	90	1	1	0	1	22.5	67.5	-2.96165411872224	2.52654585172375	0.2	0	0	0	255.027904497925	255.127886187751	0.099981689825654	0.20002677035518
51331.25	100	419	3	11	1	1	90	1	1	0	1	112.5	67.5	-0.924678087036373	-0.915132394341683	0.2	0	0	0	255.327911739005	255.427932925988	0.100021186983213	0.20002555125393
51406.25	100	420	3	12	1	1	90	1	1	0	2	157.5	112.5	-1.85435343835051	-1.86853928505399	0.2	0	0	0	255.627919711638	255.727905790089	0.0999860784504563	0.199986785650253
51481.25	100	421	3	13	1	1	90	1	1	0	2	157.5	22.5	-0.378900896445009	-1.28048983013139	0.2	0	0	0	255.927935973741	256.027914494043	0.099978520302102	0.200030183652416
51556.25	100	422	3	14	1	1	90	1	1	0	1	22.5	67.5	0.169627336680381	-2.56803190439341	0.2	0	0	0	256.227946871892	256.327923685545	0.099976813653484	0.200032377848402
51631.25	100	423	3	15	1	1	90	1	1	0	2	67.5	22.5	-2.4306256221206	1.92072346470054	0.2	0	0	0	256.527978006518	256.627946042921	0.0999680364038795	0.200054320972413
51706.5	100	424	3	16	1	1	90	1	1	0	1	112.5	157.5	0.743501785172493	1.91152102307357	0.2	0	0	0	256.827971594175	256.927975714672	0.100004120497033	0.20002555125393
51781.5	100	425	3	17	1	1	90	1	1	0	2	157.5	22.5	2.00590623221555	0.723351483842316	0.2	0	0	0	257.127987612505	257.227961744415	0.0999741319101304	0.200011897832155
51856.5	100	426	3	18	1	1	90	1	1	0	2	67.5	22.5	0.256895338911513	0.00212386226668304	0.2	0	0	0	257.427977055544	257.527951187454	0.0999741319101304	0.200015311129391
51931.5	100	427	3	19	1	1	90	1	1	0	1	112.5	157.5	-2.55565552491494	-2.35052614910537	0.2	0	0	0	257.727976494702	257.827961354284	0.0999848595820367	0.200025307247415
52006.5	100	428	3	20	1	1	90	1	1	0	1	22.5	157.5	0.128165333894587	0.975522181829981	0.2	0	0	0	258.027986417757	258.127968839137	0.0999824213795364	0.200025063473731
52081.5	100	429	3	21	1	1	90	1	1	0	1	112.5	67.5	1.96277507784056	-1.4073033299052	0.2	0	0	0	258.327991708415	258.427981687943	0.0999899795278907	0.200022869277745
52156.5	100	430	3	22	1	1	90	1	1	0	1	112.5	157.5	-0.220827173223212	-1.57168632055332	0.2	0	0	0	258.628023086814	258.727990635671	0.0999675488565117	0.20004139887169
52231.5	100	431	3	23	1	1	90	1	1	0	1	112.5	67.5	0.440793034884548	-1.31958272818751	0.2	0	0	0	258.928020088002	259.027999583632	0.0999794956296682	0.200029452331364
52306.5	100	432	3	24	1	1	90	1	1	3	2	157.5	112.5	-0.628929702025726	1.68270595134597	0.2	0	0	0	259.228023184231	259.32800560561	0.0999824213795364	0.200023600598797
52381.5	100	433	3	25	1	1	90	1	1	3	2	157.5	22.5	-0.983134680888859	2.64629843031834	0.2	0	0	0	259.528034082614	259.628022599267	0.0999885166529566	0.200028477003798
52456.5	100	434	3	26	1	1	90	1	1	3	1	112.5	67.5	-0.469428955027856	2.67015252337076	0.2	0	0	0	259.828040348599	259.928023013752	0.0999826651532203	0.200017749331892
52531.5	100	435	3	27	1	1	90	1	1	1	-1	90	135	-2.19730137838928	0.679825389893072	0.2	0	0	0	260.128057585796	260.228038788075	0.0999812022782862	0.200034572044387
52606.5	100	436	3	28	1	1	90	1	1	3	2	67.5	22.5	-2.07404793465658	-1.91728682423954	0.2	0	0	0	260.428057756508	260.528037739685	0.099979983177036	0.200018968433142
52681.5	100	437	3	29	1	1	90	1	1	3	2	67.5	112.5	0.300831364606691	-2.46908604329949	0.2	0	0	0	260.728062803391	260.828050344717	0.0999875413253903	0.200025063706562
52756.5	100	438	3	30	1	1	90	1	1	3	1	112.5	157.5	-2.60314606996829	-0.50323521739027	0.2	0	0	0	261.028072482673	261.128088305937	0.100015823263675	0.200022137956694
52831.5	100	439	3	31	1	1	90	1	1	3	1	22.5	157.5	2.07750945363007	1.47623196568675	0.2	0	0	0	261.328085819026	261.428076042328	0.0999902233015746	0.199997513089329
52906.5	100	440	3	32	1	1	90	1	1	0	2	67.5	112.5	-1.64772429034337	-0.296097931998701	0.2	0	0	0	261.628090378363	261.728073043516	0.0999826651532203	0.200014336034656
52981.5	100	441	3	33	1	1	90	1	1	0	2	157.5	22.5	-1.92798732206783	0.666050375023896	0.2	0	0	0	261.928099569865	262.028073458001	0.0999738881364465	0.200026526348665
53056.5	100	442	3	34	1	1	90	1	1	0	1	112.5	157.5	0.361884542790502	2.5104348899217	0.2	0	0	0	262.228098277701	262.328085819026	0.0999875413253903	0.200024819700047
53131.5	100	443	3	35	1	1	90	1	1	0	2	67.5	112.5	0.820011715051605	0.55939181643745	0.2	0	0	0	262.528108444531	262.62809330388	0.0999848593492061	0.200022625504062
53206.5	100	444	3	36	1	1	90	1	1	0	1	112.5	67.5	2.28835999681157	0.563008759313752	0.2	0	0	0	262.828116660938	262.92814662517	0.100029964232817	0.200023357057944
53281.5	100	445	3	37	1	1	90	1	1	0	2	67.5	22.5	0.70179534443455	-2.30633540418761	0.2	0	0	0	263.128168275347	263.228145089233	0.0999768138863146	0.200021650176495
53356.5	100	446	3	38	1	1	90	1	1	0	1	22.5	67.5	1.90572659445122	2.96748250046213	0.2	0	0	0	263.428150648018	263.528127461672	0.099976813653484	0.200005558785051
53431.5	100	447	3	39	1	1	90	1	1	0	1	22.5	67.5	1.30548420353441	2.3388949004761	0.2	0	0	0	263.728164471919	263.828157864744	0.0999933928251266	0.200037010246888
53506.5	100	448	3	40	1	1	90	1	1	0	1	112.5	67.5	2.40944438471795	-0.814590021594158	0.2	0	0	0	264.028161473107	264.128142431611	0.0999809585046023	0.200003608362749
53581.5	100	449	3	41	1	1	90	1	1	0	1	22.5	157.5	1.29125863017292	1.54146661213982	0.2	0	0	0	264.328169201966	264.428153817542	0.0999846155755222	0.20002677035518
53656.5	100	450	3	42	1	1	90	1	1	0	1	22.5	157.5	0.133065956063253	-0.501198653718147	0.2	0	0	0	264.628179368796	264.728158132872	0.0999787640757859	0.20002555125393
53731.5	100	451	3	43	1	1	90	1	1	0	2	67.5	22.5	-3.04809963658643	1.52960079595879	0.2	0	0	0	264.928185147	265.028160498012	0.0999753510113806	0.200027014128864
53806.5	100	452	3	44	1	1	90	1	1	0	1	22.5	157.5	-0.344180089987909	-0.275706958199923	0.2	0	0	0	265.228186536813	265.328168226639	0.099981689825654	0.200026038801298
53881.5	100	453	3	45	1	1	90	1	1	0	1	22.5	67.5	-1.7276553401401	3.06029912970224	0.2	0	0	0	265.528191095917	265.628180100117	0.0999890042003244	0.200022869277745
53956.5	100	454	3	46	1	1	90	1	1	0	1	22.5	67.5	-0.352109598428378	0.993123416677334	0.2	0	0	0	265.828197605675	265.928184415679	0.0999868100043386	0.200017505558208
54031.5	100	455	3	47	1	1	90	1	1	0	2	67.5	112.5	0.826041602978591	-0.31993088285674	0.2	0	0	0	266.128215330653	266.228192144306	0.099976813653484	0.200030914973468
54106.5	100	456	3	48	1	1	90	1	1	0	1	22.5	157.5	0.494130045015074	-0.0621792906260401	0.2	0	0	0	266.428225741256	266.528206699761	0.0999809585046023	0.200033596949652
54181.5	100	457	3	49	1	1	90	1	1	0	2	67.5	22.5	2.48439786598526	1.41455743465332	0.2	0	0	0	266.72822542442	266.828209552448	0.0999841280281544	0.200018724659458
54256.5	100	458	3	50	1	1	90	1	1	0	2	67.5	22.5	-1.7552990420015	0.416158105911044	0.2	0	0	0	267.028233397054	267.12821923173	0.0999858346767724	0.200023844605312
54331.5	100	459	3	51	1	1	90	1	1	0	2	157.5	22.5	2.82214786447667	-1.31337894053685	0.2	0	0	0	267.328242101008	267.428227204131	0.09998510312289	0.200022869277745
54406.5	100	460	3	52	1	1	90	1	1	0	2	67.5	112.5	-1.07552481073176	0.290385770338268	0.2	0	0	0	267.628249585861	267.728232251015	0.0999826651532203	0.200022381730378
54481.5	100	461	3	53	1	1	90	1	1	0	2	67.5	112.5	-2.77460042895773	2.39496923596686	0.2	0	0	0	267.928257558495	268.02823559125	0.0999780327547342	0.200025307480246
54556.5	100	462	3	54	1	1	90	1	1	0	2	67.5	112.5	2.74236960282934	2.77929544941124	0.2	0	0	0	268.228261386277	268.328244782984	0.0999833967071027	0.200025795027614
54631.5	100	463	3	55	1	1	90	1	1	0	1	22.5	157.5	1.34056961007871	0.633061862159928	0.2	0	0	0	268.528273259755	268.628262507962	0.099989248206839	0.200028476770967
54706.5	100	464	3	56	1	1	90	1	1	0	1	112.5	67.5	2.98940034462809	-0.190487246016408	0.2	0	0	0	268.828284158139	268.928270968143	0.0999868100043386	0.200021650176495
54781.5	100	465	3	57	1	1	90	1	1	0	2	157.5	112.5	0.280395401484721	-3.13500970823599	0.2	0	0	0	269.128300907789	269.228273089277	0.0999721814878285	0.200029939645901
54856.5	100	466	3	58	1	1	90	1	1	0	1	112.5	157.5	2.42293504899747	-2.60738716443547	0.2	0	0	0	269.428299371852	269.528278867481	0.0999794956296682	0.200026282574981
54931.5	100	467	3	59	1	1	90	1	1	0	2	67.5	22.5	-0.783339350120804	2.71455762517114	0.2	0	0	0	269.728302712087	269.828302687733	0.0999999756459147	0.200023844605312
55006.5	100	468	3	60	1	1	90	1	1	0	1	22.5	157.5	-0.48541560265022	3.0575183728287	0.2	0	0	0	270.028317511315	270.128301151795	0.0999836404807866	0.200014823582023
55081.5	100	469	3	61	1	1	90	1	1	0	2	157.5	22.5	2.39399919922292	1.54687661153668	0.2	0	0	0	270.3283179258	270.428306198446	0.0999882726464421	0.200016774004325
55156.5	100	470	3	62	1	1	90	1	1	0	2	157.5	112.5	1.48735410995931	0.618316877711669	0.2	0	0	0	270.628332725028	270.728315390181	0.0999826651532203	0.200026526581496
55231.5	100	471	3	63	1	1	90	1	1	0	2	67.5	22.5	-0.470976387830008	-1.56273400562205	0.2	0	0	0	270.928336309036	271.028317755088	0.0999814460519701	0.200020918855444
55306.5	100	472	3	64	1	1	90	1	1	0	2	67.5	112.5	-2.45194394979403	0.694629370798059	0.2	0	0	0	271.228340136819	271.328336942941	0.0999968061223626	0.200022381730378
55381.5	100	473	3	65	1	1	90	1	1	0	1	22.5	157.5	-1.54734989492076	-2.13380190030613	0.2	0	0	0	271.528352985624	271.628337844973	0.0999848593492061	0.200016042683274
55456.5	100	474	3	66	1	1	90	1	1	0	2	157.5	22.5	-1.7962596698074	-2.30206248383965	0.2	0	0	0	271.828365102876	271.92838092614	0.100015823263675	0.200027257902548
55531.5	100	475	3	67	1	1	90	1	1	0	2	67.5	22.5	2.45247093431422	1.34670178411135	0.2	0	0	0	272.128369418439	272.228352327365	0.0999829089269042	0.199988492298871
55606.5	100	476	3	68	1	1	90	1	1	3	1	112.5	67.5	1.94372244011976	-0.500548825121313	0.2	0	0	0	272.428381291917	272.528361518867	0.09998022695072	0.200028964551166
55681.5	100	477	3	69	1	1	90	1	1	3	1	112.5	157.5	0.610014218498712	-2.44494186124547	0.2	0	0	0	272.728391214972	272.82836583443	0.0999746194574982	0.200029696105048
55756.5	100	478	3	70	1	1	90	1	1	3	2	157.5	112.5	-0.0460755542842106	0.913269129482724	0.2	0	0	0	273.028423080919	273.128407452721	0.0999843718018383	0.20005724648945
55831.5	100	479	3	71	1	1	90	1	1	2	-1	45	90	0.886231678148149	1.25058850218661	0.2	0	0	0	273.32841032953	273.428388850065	0.0999785205349326	0.200002876808867
55906.5	100	480	3	72	1	1	90	1	1	3	2	67.5	22.5	-0.706702444128291	0.807746121932937	0.2	0	0	0	273.628447559429	273.728422910208	0.0999753507785499	0.200058709364384
55981.5	100	481	3	73	1	1	90	1	1	3	2	157.5	22.5	2.02036979777236	-1.94684402554431	0.2	0	0	0	273.928448461462	274.028430639068	0.0999821776058525	0.20002555125393
56056.5	100	482	3	74	1	1	90	1	1	3	2	67.5	112.5	-0.0491908078456067	-0.0592003942239292	0.2	0	0	0	274.228427420603	274.328414230607	0.0999868100043386	0.199996781535447
56131.5	100	483	3	75	1	1	90	1	1	3	1	22.5	67.5	-1.91261605073778	1.88845030877634	0.2	1	1.1919622796122	-1	274.528432955267	274.62841805839	0.09998510312289	0.200018724659458
56206.5	100	484	3	76	1	1	90	1	1	0	2	67.5	112.5	0.44516759389088	-2.04151582962565	0.2	0	0	0	274.828444828745	274.928420667071	0.0999758383259177	0.20002677035518
56281.5	100	485	3	77	1	1	90	1	1	0	2	67.5	22.5	-1.94990833046149	2.1289214762917	0.2	0	0	0	275.128449387848	275.228428883478	0.0999794956296682	0.200028720777482
56356.5	100	486	3	78	1	1	90	1	1	0	1	112.5	67.5	0.335308066856256	1.48206897613907	0.2	0	0	0	275.428458335809	275.528439781861	0.0999814460519701	0.200029452331364
56431.5	100	487	3	79	1	1	90	1	1	0	1	22.5	67.5	0.36173930109836	-2.64720295385578	0.2	0	0	0	275.728466552217	275.828486763872	0.100020211655647	0.20002677035518
56506.5	100	488	3	80	1	1	90	1	1	0	2	67.5	22.5	-1.14506647291375	-0.336972585710856	0.2	0	0	0	276.028478181921	276.128460847074	0.0999826651532203	0.199991418048739
56581.5	100	489	3	81	1	1	90	1	1	0	1	112.5	67.5	2.54787895846051	1.3322855200744	0.2	0	0	0	276.328487373423	276.428469551029	0.0999821776058525	0.200026526348665
56656.5	100	490	3	82	1	1	90	1	1	0	2	157.5	112.5	-1.49010662333278	-0.609579656440959	0.2	0	0	0	276.628489494557	276.728473378811	0.0999838842544705	0.200019943527877
56731.5	100	491	3	83	1	1	90	1	1	0	2	157.5	22.5	1.51950339976617	1.52931252316421	0.2	0	0	0	276.928499905393	277.028481107671	0.0999812022782862	0.200026526581496
56806.5	100	492	3	84	1	1	90	1	1	0	2	157.5	112.5	3.12845728801918	2.63607552336581	0.2	0	0	0	277.228528357809	277.328525163932	0.0999968061223626	0.200047250138596
56881.5	100	493	3	85	1	1	90	1	1	0	1	112.5	157.5	-0.538843828550946	-1.23504901511971	0.2	0	0	0	277.528530235169	277.62852874794	0.0999985127709806	0.200005071237683
56956.5	100	494	3	86	1	1	90	1	1	0	1	22.5	67.5	0.760862954324182	-2.90076612457859	0.2	0	0	0	277.828556981171	277.928539890097	0.0999829089269042	0.200028233230114
57031.5	100	495	3	87	1	1	90	1	1	0	2	157.5	112.5	-3.10492779007672	0.320119848886192	0.2	0	0	0	278.128531551687	278.22851421684	0.0999826651532203	0.199991661589593
57106.5	100	496	3	88	1	1	90	1	1	0	1	112.5	157.5	-2.07092342317639	1.23992458828118	0.2	0	0	0	278.428538305219	278.528518288629	0.0999799834098667	0.200024088378996
57181.5	100	497	3	89	1	1	90	1	1	0	1	112.5	67.5	1.71559987841014	-1.57984114523602	0.2	0	0	0	278.7285467654	278.828533087857	0.0999863224569708	0.200028476770967
57256.5	100	498	3	90	1	1	90	1	1	0	1	22.5	157.5	-2.59279480673459	2.51904682441339	0.2	0	0	0	279.028555225581	279.128538134741	0.0999829091597348	0.200022137723863
57331.5	100	499	3	91	1	1	90	1	1	0	2	157.5	112.5	1.88442599368936	-1.09378786645767	0.2	0	0	0	279.328566855285	279.428545863368	0.0999790080823004	0.200028720544651
57406.5	100	500	3	92	1	1	90	1	1	0	2	157.5	22.5	0.5715615452461	-1.64925108423244	0.2	0	0	0	279.628575071692	279.728550666478	0.0999755947850645	0.20002920832485
57481.5	100	501	3	93	1	1	90	1	1	0	2	67.5	112.5	-3.05635988130118	-3.11225185347723	0.2	0	0	0	279.928576705279	280.028560833307	0.0999841280281544	0.200026038801298
57556.5	100	502	3	94	1	1	90	1	1	0	1	112.5	67.5	0.322545242698681	2.48756999488592	0.2	0	0	0	280.228586140787	280.328572950559	0.099986809771508	0.200025307480246
57631.5	100	503	3	95	1	1	90	1	1	0	2	67.5	22.5	2.09409056135838	1.4643341144368	0.2	0	0	0	280.528596307617	280.628579460317	0.0999831527005881	0.200023357057944
57706.5	100	504	3	96	1	1	90	1	1	0	1	112.5	157.5	-2.30239561340746	1.86251259960326	0.2	0	0	0	280.828609156422	280.928584994748	0.0999758383259177	0.200029696105048
57781.5	100	505	3	97	1	1	90	1	1	0	2	67.5	112.5	-2.00684315969147	2.44690792508159	0.2	0	0	0	281.128616885049	281.22859467403	0.0999777889810503	0.200031890301034
57856.5	100	506	3	98	1	1	90	1	1	0	1	22.5	67.5	-1.00101041393209	2.01667893700305	0.2	0	0	0	281.428620225284	281.528616300086	0.0999960748013109	0.20002555125393
57931.5	100	507	3	99	1	1	90	1	1	0	1	112.5	157.5	-2.26514819156344	-3.06438219522821	0.2	0	0	0	281.728627954144	281.828646946931	0.100018992787227	0.200011654058471
58006.5	100	508	3	100	1	1	90	1	1	0	1	22.5	157.5	-0.0850790763127809	1.3034437160483	0.2	0	0	0	282.028662014287	282.128618835704	0.099956821417436	0.200015067355707
58081.5	100	509	3	101	1	1	90	1	1	0	2	157.5	22.5	-2.36346408859154	0.16841738951589	0.2	0	0	0	282.328645362053	282.428626320558	0.0999809585046023	0.200026526348665
58156.5	100	510	3	102	1	1	90	1	1	0	1	112.5	67.5	1.59776726233271	2.04593437406049	0.2	0	0	0	282.628658454632	282.728639656911	0.0999812022782862	0.200032134074718
58231.5	100	511	3	103	1	1	90	1	1	0	1	22.5	157.5	1.22447333669632	-1.19452334318865	0.2	0	0	0	282.928665695712	283.028666402912	0.100000707199797	0.200026038801298
58306.5	100	512	3	104	1	1	90	1	1	0	1	112.5	157.5	-1.05416454443532	-0.985324198343621	0.2	0	0	0	283.228675374994	283.328658283921	0.0999829089269042	0.200008972082287
58381.5	100	513	3	105	1	1	90	1	1	0	1	22.5	67.5	0.428001221432433	-1.88538873037149	0.2	0	0	0	283.52868529805	283.628661380382	0.0999760823324323	0.200027014128864
58456.5	100	514	3	106	1	1	90	1	1	0	2	67.5	112.5	0.790955426208731	-0.59194801664579	0.2	0	0	0	283.828686444089	283.928666427266	0.099979983177036	0.200025063706562
58531.5	100	515	3	107	1	1	90	1	1	0	2	157.5	22.5	0.907355393747505	-2.99901005219433	0.2	0	0	0	284.128700267989	284.228678300744	0.0999780327547342	0.200033840723336
58606.5	100	516	3	108	1	1	90	1	1	0	1	112.5	157.5	0.849026288854034	1.40501886010088	0.2	0	0	0	284.428699951153	284.528686029604	0.0999860784504563	0.200021650409326
58681.5	100	517	3	109	1	1	90	1	1	0	2	67.5	112.5	-1.6031652092633	1.70090493657179	0.2	0	0	0	284.728709142655	284.828693514457	0.0999843718018383	0.200023113051429
58756.5	100	518	3	110	1	1	90	1	1	0	2	157.5	112.5	1.32558127273709	-0.843692532994596	0.2	0	0	0	285.028755393345	285.128700024216	0.0999446308705956	0.200061878887936
58831.5	100	519	3	111	1	1	90	1	1	0	2	67.5	22.5	0.209816527719036	-1.10498258953503	0.2	0	0	0	285.328730695415	285.428710678592	0.099979983177036	0.200030671199784
58906.5	100	520	3	112	1	1	90	1	1	0	1	22.5	67.5	0.503673626286407	-1.68849067486688	0.2	0	0	0	285.62873403565	285.728716944577	0.0999829089269042	0.200023357057944
58981.5	100	521	3	113	1	1	90	1	1	0	1	112.5	157.5	-0.242746142532559	-1.3062746236856	0.2	0	0	0	285.928743227385	286.028726380086	0.0999831527005881	0.200026282807812
59056.5	100	522	3	114	1	1	90	1	1	0	2	157.5	22.5	-0.234267863390413	0.166050011852863	0.2	0	0	0	286.228748761816	286.328733621165	0.0999848593492061	0.200022381730378
59131.5	100	523	3	115	1	1	90	1	1	0	2	157.5	112.5	1.50122910990994	1.95553975600344	0.2	0	0	0	286.528796475381	286.628755490994	0.0999590156134218	0.200062854215503
59206.5	100	524	3	116	1	1	90	1	1	0	2	67.5	112.5	-2.97833062330497	2.68106414529291	0.2	0	0	0	286.828797133639	286.928752979729	0.0999558460898697	0.200041642645374
59281.5	100	525	3	117	1	1	90	1	1	0	2	157.5	112.5	1.21716374359171	1.94313509621511	0.2	0	0	0	287.128772923257	287.228756075958	0.0999831527005881	0.200019943527877
59356.5	100	526	3	118	1	1	90	1	1	0	1	22.5	157.5	-1.95875257285114	0.115513743456058	0.2	0	0	0	287.428787478711	287.528771362966	0.0999838842544705	0.200031402753666
59431.5	100	527	3	119	1	1	90	1	1	0	1	112.5	67.5	2.44251686741586	-0.566371729805971	0.2	0	0	0	287.728794719791	287.828777872724	0.0999831529334188	0.200023356825113
59506.5	100	528	3	120	1	1	90	1	1	0	1	22.5	157.5	-1.21646877992634	-2.87683453352759	0.2	0	0	0	288.028807324823	288.128786088899	0.0999787640757859	0.200029452098534
59581.5	100	529	3	121	1	1	90	1	1	0	1	112.5	157.5	-1.27204944469718	-0.926373026444121	0.2	0	0	0	288.328811884159	288.428792354884	0.0999804707244039	0.200025795260444
59656.5	100	530	3	122	1	1	90	1	1	0	1	22.5	67.5	-0.900328897894796	-2.48040258122937	0.2	0	0	0	288.628812786192	288.728795451345	0.0999826651532203	0.200020431308076
59731.5	100	531	3	123	1	1	90	1	1	0	1	22.5	67.5	-2.72651481989383	0.522865303004527	0.2	0	0	0	288.9288222217	289.028866570443	0.100044348742813	0.20002677035518
59806.5	100	532	3	124	1	1	90	1	1	3	2	157.5	112.5	-2.76242652960755	-0.227304822940619	0.2	0	0	0	289.228874079883	289.328853819286	0.0999797394033521	0.200007509440184
59881.5	100	533	3	125	1	1	90	1	1	3	2	67.5	112.5	-2.12595034336325	-0.28758519194697	0.2	0	0	0	289.528884002939	289.6288435061	0.0999595031607896	0.200030183652416
59956.5	100	534	3	126	1	1	90	1	1	3	1	22.5	157.5	1.69470039846551	-2.16741397724209	0.2	0	0	0	289.82886637561	289.928844652139	0.0999782765284181	0.200022869510576
60031.5	100	535	3	127	1	1	90	1	1	3	1	22.5	67.5	-1.12669589321704	0.263513060047856	0.2	0	0	0	290.128870934714	290.228856038069	0.0999851033557206	0.200026282574981
65165	100	536	4	0	2	2	0	1	1	3	1	22.5	157.5	-2.56779826270057	0.324170554855516	0.25	0	0	0	310.662756204372	310.762735700002	0.0999794956296682	-1
65223.25	100	537	4	1	2	2	0	1	1	3	2	67.5	22.5	-2.32872718836933	0.0618764141216768	0.133333333333333	0	0	0	310.8961112611	310.996074665338	0.099963404238224	0.133375561097637
65294.25	100	538	4	2	2	2	0	1	1	3	2	157.5	22.5	2.80438377121303	3.13737645306384	0.183333333333333	0	0	0	311.179443143774	311.279440681217	0.0999975374434143	0.183368478436023
65377.5	100	539	4	3	2	2	0	1	1	3	1	112.5	67.5	-0.18739153059346	0.069301712707865	0.233333333333333	0	0	0	311.512774282834	311.612805953715	0.100031670881435	0.233333601616323
65431.75	100	540	4	4	2	2	0	1	1	0	1	22.5	157.5	0.180925586421499	-2.03330636706328	0.116666666666667	0	0	0	311.729494941188	311.829424455762	0.099929514573887	0.116688987473026
65494.25	100	541	4	5	2	2	0	1	1	0	1	22.5	67.5	-3.06464524553052	1.28535072126807	0.15	0	0	0	311.979451725725	312.079433659557	0.0999819338321686	0.150027269963175
65569.25	100	542	4	6	2	2	0	1	1	0	1	22.5	67.5	0.225962939336608	0.644447419570398	0.2	0	0	0	312.279486517422	312.379466256825	0.0999797394033521	0.200052857864648
65656.75	100	543	4	7	2	2	0	1	1	0	2	67.5	22.5	-1.86298782773866	-1.78123147971111	0.25	0	0	0	312.629490820691	312.729473729618	0.0999829089269042	0.250024563865736
65744.25	100	544	4	8	2	2	0	1	1	0	2	157.5	112.5	0.927655181962376	-2.05480561033015	0.25	0	0	0	312.979486834491	313.079465598566	0.0999787640757859	0.250013104872778
65806.75	100	545	4	9	2	2	0	1	1	0	1	112.5	157.5	0.718519688969589	2.16471685945527	0.15	0	0	0	313.22948799259	313.329483335838	0.0999953432474285	0.150022394023836
65890	100	546	4	10	2	2	0	1	1	0	1	112.5	67.5	-1.24358559839034	1.58363954877948	0.233333333333333	0	0	0	313.562824739143	313.662810817594	0.0999860784504563	0.233341403305531
65981.75	100	547	4	11	2	2	0	1	1	0	2	157.5	112.5	2.90231558765317	-1.90347923321085	0.266666666666667	0	0	0	313.929508545669	314.029481702251	0.0999731565825641	0.266697728075087
66077.5	100	548	4	12	2	2	0	1	1	0	2	67.5	112.5	-1.85801894270969	-1.89568580105292	0.283333333333333	0	0	0	314.312847718131	314.412837453885	0.0999897357542068	0.283366015879437
66161	100	549	4	13	2	2	0	1	1	0	2	157.5	112.5	1.00874205435023	2.11491945834753	0.233333333333333	0	0	0	314.646207139129	314.74617956439	0.0999724252615124	0.233369685243815
66236	100	550	4	14	2	2	0	1	1	0	2	67.5	22.5	-0.763143250984998	-0.71802192854394	0.2	0	0	0	314.946201214567	315.046178516001	0.0999773014336824	0.200021650176495
66323.5	100	551	4	15	2	2	0	1	1	0	1	22.5	157.5	-1.09919701697774	-1.43573188119144	0.25	0	0	0	315.296209418913	315.396205737256	0.0999963183421642	0.25003090291284
66377.5	100	552	4	16	2	2	0	1	1	0	1	112.5	157.5	-0.676447278288673	2.36267127171845	0.116666666666667	0	0	0	315.512913498096	315.612890799297	0.0999773012008518	0.116707760840654
66427.5	100	553	4	17	2	2	0	1	1	0	1	22.5	67.5	1.05749223798276	0.392043027109624	0.1	0	0	0	315.712917350233	315.812881485792	0.0999641355592757	0.100026550935581
66515	100	554	4	18	2	2	0	1	1	0	2	157.5	22.5	1.4437070231095	-1.18825809140919	0.25	0	0	0	316.062925066799	316.162907975726	0.0999829089269042	0.250043581007048
66615	100	555	4	19	2	2	0	1	1	0	1	112.5	67.5	0.0104722006022295	-1.01396776730688	0.3	0	0	0	316.462933990173	316.562893005786	0.0999590156134218	0.300026014447212
66706.75	100	556	4	20	2	2	0	1	1	0	1	112.5	157.5	-1.2177812894601	1.74831118170831	0.266666666666667	0	0	0	316.829584638588	316.929571204819	0.0999865662306547	0.266691632801667
66765	100	557	4	21	2	2	0	1	1	0	1	112.5	67.5	2.35278375712629	-0.529541043370054	0.133333333333333	0	0	0	317.062925066799	317.162907731952	0.0999826651532203	0.13335386198014
66852.5	100	558	4	22	2	2	0	1	1	0	1	22.5	67.5	0.27162573324506	2.65788539817384	0.25	0	0	0	317.412964722374	317.512946168659	0.0999814462848008	0.250056990422308
66944.25	100	559	4	23	2	2	0	1	1	0	2	67.5	112.5	2.17187139842396	-1.61229268616578	0.266666666666667	0	0	0	317.779609763296	317.879594866419	0.09998510312289	0.266663594637066
67019.25	100	560	4	24	2	2	0	1	1	0	1	112.5	157.5	2.94941401234551	-2.93534763388739	0.2	0	0	0	318.079621149227	318.179604301928	0.0999831527005881	0.200026282807812
67094.25	100	561	4	25	2	2	0	1	1	0	2	67.5	112.5	-1.32354386994762	0.418055661340551	0.2	0	0	0	318.379661548417	318.479608861031	0.0999473126139492	0.20005724648945
67152.5	100	562	4	26	2	2	0	1	1	0	2	67.5	112.5	-0.154121388458112	2.18097692660921	0.133333333333333	0	0	0	318.612962967018	318.712949289242	0.0999863222241402	0.133354105986655
67219.25	100	563	4	27	2	2	0	1	1	0	1	112.5	157.5	1.60247840711539	1.25629523703016	0.166666666666667	0	0	0	318.879639239749	318.979623124003	0.0999838842544705	0.166689950507134
67311	100	564	4	28	2	2	0	1	1	0	1	112.5	67.5	0.366561658754363	2.13427951368694	0.266666666666667	0	0	0	319.246315244352	319.346298640827	0.099983396474272	0.266692120349035
67411	100	565	4	29	2	2	0	1	1	0	1	22.5	67.5	0.203293766377609	-2.46170807486397	0.3	0	0	0	319.646326605929	319.746307808207	0.0999812022782862	0.300027965102345
67477.5	100	566	4	30	2	2	0	1	1	0	1	22.5	67.5	-2.05259114349252	-2.20814906952966	0.166666666666667	0	0	0	319.91300824238	320.012986275135	0.0999780327547342	0.166700434172526
67531.75	100	567	4	31	2	2	0	1	1	0	2	157.5	112.5	0.280360723547242	-0.79873008715627	0.116666666666667	0	0	0	320.129705738975	320.229655733565	0.0999499945901334	0.116719463840127
67631.75	100	568	4	32	2	2	0	1	1	0	2	67.5	112.5	2.02813976154336	-1.48572632582477	0.3	0	0	0	320.529677846935	320.629667338915	0.0999894919805229	0.300022113369778
67719.25	100	569	4	33	2	2	0	1	1	0	1	112.5	157.5	-2.60699362496362	1.3985026387134	0.25	0	0	0	320.879695559852	320.979676030576	0.0999804707244039	0.250028220936656
67815	100	570	4	34	2	2	0	1	1	0	1	22.5	67.5	-1.59128001677243	1.86675161691827	0.283333333333333	0	0	0	321.263039608486	321.363022029866	0.0999824213795364	0.283363577909768
67894.25	100	571	4	35	2	2	0	1	1	0	1	22.5	67.5	2.73114476327709	0.421843901691873	0.216666666666667	0	0	0	321.579712212086	321.679699021857	0.099986809771508	0.216690182220191
67977.5	100	572	4	36	2	2	0	1	1	0	1	22.5	157.5	1.97455600763408	-2.94764712399218	0.233333333333333	0	0	0	321.913059442537	322.013039913261	0.0999804707244039	0.233360420679674
68052.5	100	573	4	37	2	2	0	1	1	3	1	22.5	157.5	-2.89841984463746	-1.66372556878236	0.2	0	0	0	322.213070096914	322.313045691699	0.0999755947850645	0.200030183652416
68140	100	574	4	38	2	2	0	1	1	3	1	112.5	67.5	1.48883967629099	1.90192028764242	0.25	0	0	0	322.563071718207	322.663053895812	0.0999821776058525	0.25002602650784
68190	100	575	4	39	2	2	0	1	1	3	2	67.5	112.5	-2.86269325068124	-1.28331012354947	0.1	0	0	0	322.763077520998	322.863059454598	0.0999819335993379	0.100023625185713
68261	100	576	4	40	2	2	0	1	1	2	-1	135	0	-0.921474722496056	-1.47991991842803	0.183333333333333	0	0	0	323.046420131344	323.14640474692	0.0999846155755222	0.183360676746815
68356.75	100	577	4	41	2	2	0	1	1	3	2	157.5	112.5	1.21143028334723	0.0670882379001427	0.283333333333333	0	0	0	323.429772713454	323.529739774764	0.0999670613091439	0.28336796653457
68440	100	578	4	42	2	2	0	1	1	3	1	22.5	67.5	1.25253070525178	-0.662705553508465	0.233333333333333	0	0	0	323.763105315156	323.863084810786	0.0999794956296682	0.233365540392697
68540	100	579	4	43	2	2	0	1	1	3	1	112.5	157.5	2.39183385163431	2.17157883117561	0.3	0	0	0	324.163154955022	324.263128355378	0.099973400356248	0.300070144236088
68619.25	100	580	4	44	2	2	0	1	1	3	2	67.5	22.5	1.11174412025822	-0.143734467615885	0.216666666666667	0	0	0	324.47981926892	324.579801202519	0.0999819335993379	0.216690913541242
68686	100	581	4	45	2	2	0	1	1	0	1	112.5	67.5	-1.01474167151003	0.519318447692254	0.166666666666667	0	0	0	324.746497248299	324.846463822061	0.0999665737617761	0.166696045780554
68769.25	100	582	4	46	2	2	0	1	1	0	1	22.5	67.5	-2.35441802476715	2.10757339309375	0.233333333333333	0	0	0	325.079836433055	325.17978789052	0.0999514574650675	0.233372610993683
68819.25	100	583	4	47	2	2	0	1	1	0	1	112.5	67.5	2.04292651353097	1.05214914002384	0.1	0	0	0	325.279810784152	325.379798569484	0.0999877853319049	0.100022893631831
68877.5	100	584	4	48	2	2	0	1	1	0	1	112.5	157.5	2.72593272262802	2.70589193126122	0.133333333333333	0	0	0	325.513150968589	325.613133633742	0.0999826651532203	0.133352399105206
68956.75	100	585	4	49	2	2	0	1	1	0	1	112.5	67.5	2.09956512246875	2.46410226347267	0.216666666666667	0	0	0	325.829825278604	325.929809162859	0.0999838842544705	0.216691644862294
69019.25	100	586	4	50	2	2	0	1	1	0	2	157.5	22.5	-0.844475025419903	-1.09690630764281	0.15	0	0	0	326.07983497018	326.179817879107	0.0999829089269042	0.150025807321072
69081.75	100	587	4	51	2	2	0	1	1	0	2	67.5	22.5	-0.732678578535045	-0.143647229635472	0.15	0	0	0	326.329855389195	326.429854389513	0.0999990003183484	0.150037510087714
69131.75	100	588	4	52	2	2	0	1	1	0	1	112.5	157.5	-0.905558565266479	2.37456601857813	0.1	0	0	0	326.529874113854	326.629856535001	0.0999824211467057	0.100019724341109
69223.5	100	589	4	53	2	2	0	1	1	0	1	22.5	67.5	-0.854894886337685	-0.988032098705306	0.266666666666667	1	0	0	326.896558407927	326.996518154861	0.0999597469344735	0.266701872926205
69290	100	590	4	54	2	2	0	1	1	0	2	157.5	22.5	0.263465975260662	1.2659630642132	0.166666666666667	0	0	0	327.16322712251	327.263207105687	0.099979983177036	0.166708967648447
69373.5	100	591	4	55	2	2	0	1	1	0	2	157.5	22.5	-0.359058519415652	-2.63561437010874	0.233333333333333	0	0	0	327.496547290124	327.596555067692	0.100007777567953	0.233340184437111
69436	100	592	4	56	2	2	0	1	1	0	1	112.5	67.5	-2.87753133228474	-2.21101236823696	0.15	0	0	0	327.746574292192	327.846558419988	0.0999841277953237	0.150019224500284
69511	100	593	4	57	2	2	0	1	1	0	2	157.5	112.5	2.8737284918769	-3.08854524421351	0.2	0	0	0	328.04658323992	328.146566880168	0.0999836402479559	0.200024819932878
69606.75	100	594	4	58	2	2	0	1	1	0	1	22.5	157.5	0.0778122966355008	2.09489162493255	0.283333333333333	0	0	0	328.429930458078	328.529908978613	0.0999785205349326	0.283363577909768
69673.5	100	595	4	59	2	2	0	1	1	0	1	22.5	157.5	0.897816753176895	-0.625031565614654	0.166666666666667	0	0	0	328.69660136709	328.796553799883	0.0999524327926338	0.166692388476804
69773.5	100	596	4	60	2	2	0	1	1	0	2	157.5	22.5	0.0943028571406268	-2.81035231116863	0.3	0	0	0	329.096620043041	329.196579058655	0.0999590156134218	0.300066243158653
69844.25	100	597	4	61	2	2	0	1	1	0	2	157.5	22.5	2.37468420808957	-0.260791270758721	0.183333333333333	0	0	0	329.379931445699	329.479913623072	0.0999821773730218	0.183352387044579
69906.75	100	598	4	62	2	2	0	1	1	0	2	67.5	112.5	-1.58893652872914	-0.375475382036813	0.15	0	0	0	329.629966005683	329.729926971719	0.0999609660357237	0.150052382610738
69986	100	599	4	63	2	2	0	1	1	0	2	157.5	112.5	-2.85878976696997	1.85123956952115	0.216666666666667	0	0	0	329.946634464199	330.046595186461	0.0999607222620398	0.216707492480054
70077.75	100	600	4	64	2	2	0	1	1	0	2	157.5	22.5	-1.24402857691474	0.327872743456055	0.266666666666667	0	0	0	330.313285600394	330.413281187415	0.0999955870211124	0.266690413933247
70148.5	100	601	4	65	2	2	0	1	1	0	1	22.5	157.5	2.25880646361615	-2.24609648211523	0.183333333333333	0	0	0	330.596628942061	330.69661380141	0.0999848593492061	0.183347754646093
70211	100	602	4	66	2	2	0	1	1	0	2	157.5	112.5	-3.00630825404358	1.1759065538083	0.15	0	0	0	330.84663546388	330.946641291026	0.100005827145651	0.150021662469953
70261	100	603	4	67	2	2	0	1	1	0	2	157.5	112.5	-0.763609163728767	1.21599737890738	0.1	0	0	0	331.046666379087	331.146647825139	0.0999814460519701	0.100025088060647
