onset	duration	total_event_number	stream_number	event_num_per_stream	timing_predictability	target_col	target_ori	n_targets	n_distractors	is_target	ori_pair_num	att_ori	unatt_ori	gabor_phase_att	gabor_phase_unatt	blank_dur	response	rt	correct	time_stimon	time_stimoff	stim_dur	ISI_dur
8393	100	0	0	0	2	1	0	2	2	3	2	157.5	22.5	-0.687417798087187	-2.30052964170561	0.233333333333333	0	0	0	64.6285926260753	64.728555298876	0.099962672800757	-1
8451.5	100	1	0	1	2	1	0	2	2	3	2	67.5	112.5	1.30943567416972	1.37278624247343	0.133333333333333	0	0	0	64.8622114849277	64.9618935327744	0.0996820478467271	0.133656186051667
8526.5	100	2	0	2	2	1	0	2	2	3	2	157.5	112.5	2.42001042607116	3.0833269736976	0.2	0	0	0	65.1619195716921	65.2619002863066	0.0999807146145031	0.200026038917713
8580.5	100	3	0	3	2	1	0	2	2	3	1	22.5	67.5	-1.07181933918323	-1.78502717713755	0.116666666666667	0	0	0	65.378593662288	65.4785751084564	0.0999814461683854	0.116693375981413
8651.5	100	4	0	4	2	1	0	2	2	0	2	157.5	112.5	-2.05755132609118	-1.42606792999939	0.183333333333333	0	0	0	65.6619333468843	65.7619155243738	0.0999821774894372	0.1833582384279
8751.5	100	5	0	5	2	1	0	2	2	0	1	112.5	157.5	-1.33839181875097	-2.14266153233012	0.3	0	0	0	66.061952510383	66.1619129887549	0.0999604783719406	0.300036986009218
8805.75	100	6	0	6	2	1	0	2	2	0	2	157.5	22.5	-2.161301756362	2.4360997422034	0.116666666666667	0	0	0	66.2786161171971	66.3785997575615	0.0999836403643712	0.116703128442168
8905.75	100	7	0	7	2	1	0	2	2	0	2	157.5	22.5	3.05794023348443	-0.195468738258899	0.3	0	0	0	66.6786289415322	66.7786091685994	0.0999802270671353	0.300029183970764
8980.75	100	8	0	8	2	1	0	2	2	0	1	22.5	157.5	2.94592671707431	1.58541926635635	0.2	0	0	0	66.9786342321895	67.0786210421938	0.0999868100043386	0.200025063590147
9064	100	9	0	9	2	1	0	2	2	0	2	67.5	22.5	-0.479344929636381	2.1753495109992	0.233333333333333	0	0	0	67.3119775617961	67.4119614459341	0.0999838841380551	0.233356519602239
9122.25	100	10	0	10	2	1	0	2	2	0	1	112.5	67.5	-1.07540715969233	-1.97710216842891	0.133333333333333	0	0	0	67.5453172585694	67.645305775106	0.0999885165365413	0.133355812635273
9218.25	100	11	0	11	2	1	0	2	2	0	1	22.5	67.5	-1.57958667546095	-2.26041020772143	0.283333333333333	0	0	0	67.9286596006714	68.0286256867694	0.099966086097993	0.283353825565428
9293.25	100	12	0	12	2	1	0	2	2	0	2	157.5	22.5	0.0890073185491027	-2.29096864994774	0.2	0	0	0	68.2286678169621	68.3286565773888	0.0999887604266405	0.200042130192742
9380.75	100	13	0	13	2	1	0	2	2	0	2	157.5	22.5	-2.07617858611459	-1.45370535577436	0.25	0	0	0	68.5786796783796	68.6786603929941	0.0999807146145031	0.250023100990802
9434.75	100	14	0	14	2	1	0	2	2	0	1	112.5	157.5	-2.15192078036652	0.317927846861076	0.116666666666667	0	0	0	68.795352306217	68.8960507963784	0.100698490161449	0.116691913222894
9484.75	100	15	0	15	2	1	0	2	2	0	1	22.5	157.5	2.81100854469684	-0.766508618726773	0.1	0	0	0	68.9953693241114	69.0953383358428	0.0999690117314458	0.0993185277329758
9547.25	100	16	0	16	2	1	0	2	2	0	1	22.5	67.5	-1.66851839292888	1.93831991426905	0.15	0	0	0	69.245362680289	69.3453290101606	0.0999663298716769	0.150024344446138
9618.25	100	17	0	17	2	1	0	2	2	0	2	67.5	22.5	2.35285313825808	1.5671332895732	0.183333333333333	0	0	0	69.5287009020103	69.6286925880704	0.0999916860600933	0.183371891849674
9680.75	100	18	0	18	2	1	0	2	2	0	1	22.5	157.5	-0.888736366015083	-1.37762373475056	0.15	0	0	0	69.778713762993	69.8786939899437	0.09998022695072	0.150021174922585
9734.75	100	19	0	19	2	1	0	2	2	0	2	67.5	112.5	1.66088284896085	1.38273541884142	0.116666666666667	0	0	0	69.9953827336431	70.095368080656	0.0999853470129892	0.116688743699342
9822.25	100	20	0	20	2	1	0	2	2	0	2	67.5	112.5	1.43837486157171	0.597515407345663	0.25	0	0	0	70.3453948387178	70.4453753095586	0.0999804708408192	0.250026758061722
9918.25	100	21	0	21	2	1	0	2	2	0	1	112.5	157.5	-0.209486384107767	0.508042925069026	0.283333333333333	0	0	0	70.7287188951159	70.8287217965117	0.100002901395783	0.283343585557304
10009.75	100	22	0	22	2	1	0	2	2	0	2	67.5	22.5	1.37519126048001	1.45842446066375	0.266666666666667	0	0	0	71.0954148920719	71.1953887800919	0.0999738880200312	0.266693095560186
10084.75	100	23	0	23	2	1	0	2	2	3	2	157.5	22.5	1.9461023936938	-1.12791495382488	0.2	0	0	0	71.3954140875721	71.495394558413	0.0999804708408192	0.200025307480246
10176.5	100	24	0	24	2	1	0	2	2	3	1	22.5	67.5	-0.73355338209507	-0.6319331063204	0.266666666666667	0	0	0	71.7620917987078	71.8620732448762	0.0999814461683854	0.266697240294889
10255.75	100	25	0	25	2	1	0	2	2	3	2	157.5	112.5	1.4875645356855	1.34347546990813	0.216666666666667	0	0	0	72.078769522137	72.1787443853682	0.0999748632311821	0.21669627726078
10351.5	100	26	0	26	2	1	0	2	2	1	-1	0	45	-0.673202481337948	1.28496197996245	0.283333333333333	0	0	0	72.4621060128557	72.5620952608297	0.0999892479740083	0.283361627487466
10414	100	27	0	27	2	1	0	2	2	3	1	22.5	157.5	-2.80498772695036	0.83028665789744	0.15	0	0	0	72.7121213119244	72.8121090970235	0.0999877850990742	0.150026051094756
10468.25	100	28	0	28	2	1	0	2	2	3	2	67.5	22.5	-1.42031315769224	2.95010959652636	0.116666666666667	0	0	0	72.9287880882621	73.0287697782042	0.0999816899420694	0.116678991238587
10518.25	100	29	0	29	2	1	0	2	2	3	2	67.5	112.5	-1.54741338546388	1.35945977733839	0.1	0	0	0	73.1287782870932	73.2287514436757	0.0999731565825641	0.100008508889005
10576.5	100	30	0	30	2	1	0	2	2	3	1	112.5	157.5	1.45297079512399	0.200681352346166	0.133333333333333	0	0	0	73.3621170086553	73.4620952851838	0.0999782765284181	0.133365564979613
10626.5	100	31	0	31	2	1	0	2	2	0	2	67.5	112.5	-0.5520060525445	0.860754532864309	0.1	0	0	0	73.5621191541431	73.6621266879374	0.100007533794269	0.100023868959397
10684.75	100	32	0	32	2	1	0	2	2	0	1	112.5	157.5	0.929462051132136	-2.68499933191367	0.133333333333333	0	0	0	73.795488351956	73.8954678475857	0.0999794956296682	0.133361664018594
10755.75	100	33	0	33	2	1	0	2	2	0	1	22.5	157.5	-0.87897511281575	-1.2026920394121	0.183333333333333	0	0	0	74.0788275488885	74.1788080197293	0.0999804708408192	0.183359701302834
10822.25	100	34	0	34	2	1	0	2	2	0	1	112.5	157.5	0.298940888141166	-0.100531769038846	0.166666666666667	0	0	0	74.3454989454476	74.4454838049132	0.0999848594656214	0.166690925718285
10901.5	100	35	0	35	2	1	0	2	2	0	1	112.5	67.5	1.3399493868193	-1.52102111459135	0.216666666666667	0	0	0	74.662176181213	74.7621586025925	0.0999824213795364	0.216692376299761
10959.75	100	36	0	36	2	1	0	2	2	0	2	157.5	22.5	2.58847482792253	2.52165681452229	0.133333333333333	0	0	0	74.8955170970876	74.9955039069755	0.0999868098879233	0.133358494495042
11059.75	100	37	0	37	2	1	0	2	2	0	2	67.5	112.5	-2.63005679174161	-0.372374656587205	0.3	0	0	0	75.2955357729224	75.3955162437633	0.0999804708408192	0.300031865946949
11114	100	38	0	38	2	1	0	2	2	0	2	67.5	22.5	2.00860884589042	-2.59057311814534	0.116666666666667	0	0	0	75.5122062064474	75.6121888716007	0.0999826651532203	0.116689962684177
11172.25	100	39	0	39	2	1	0	2	2	0	1	22.5	67.5	1.41867560838604	2.66102496273308	0.133333333333333	0	0	0	75.7455461469945	75.8455319816712	0.0999858346767724	0.133357275393791
11247.25	100	40	0	40	2	1	0	2	2	0	2	67.5	112.5	0.20643092462673	-1.16314800307564	0.2	0	0	0	76.045556557714	76.1455367846647	0.09998022695072	0.200024576042779
11314	100	41	0	41	2	1	0	2	2	0	1	22.5	157.5	-1.96113487184143	-0.760176934815811	0.166666666666667	0	0	0	76.3122267351719	76.4121957470197	0.0999690118478611	0.166689950507134
11393.25	100	42	0	42	2	1	0	2	2	0	1	22.5	67.5	1.98731057571283	2.94046754086794	0.216666666666667	0	0	0	76.6289008015301	76.7288734704489	0.099972668918781	0.216705054510385
11468.25	100	43	0	43	2	1	0	2	2	0	1	112.5	67.5	-0.737924717289285	-2.48644890766543	0.2	0	0	0	76.9289085302735	77.0288758353563	0.0999673050828278	0.200035059824586
11534.75	100	44	0	44	2	1	0	2	2	0	1	22.5	67.5	2.39349659026331	-2.09176278490836	0.166666666666667	0	0	0	77.1955835840199	77.2955677119317	0.0999841279117391	0.166707748663612
11630.75	100	45	0	45	2	1	0	2	2	0	2	157.5	22.5	2.60733267772918	-2.65755491617605	0.283333333333333	0	0	0	77.578929095529	77.6789071282838	0.0999780327547342	0.283361383597367
11709.75	100	46	0	46	2	1	0	2	2	0	1	22.5	157.5	-1.17537062492959	2.37758033406788	0.216666666666667	0	0	0	77.895603649551	77.9955848518293	0.0999812022782862	0.216696521267295
11793.25	100	47	0	47	2	1	0	2	2	0	1	22.5	157.5	0.14811531595877	1.45977937151428	0.233333333333333	0	0	0	78.2289550247369	78.3289284250932	0.099973400356248	0.233370172907598
11893.25	100	48	0	48	2	1	0	2	2	0	1	22.5	67.5	2.55545455375864	0.953510737385042	0.3	0	0	0	78.6289561463054	78.7289373485837	0.0999812022782862	0.300027721212246
11968.25	100	49	0	49	2	1	0	2	2	0	2	67.5	22.5	-0.211695544474887	-3.08890197041313	0.2	0	0	0	78.9289616807364	79.0289497097256	0.0999880289891735	0.20002433215268
12030.75	100	50	0	50	2	1	0	2	2	0	1	112.5	67.5	-2.02715154703733	-1.12850758806152	0.15	0	0	0	79.1789696655469	79.2789567192085	0.0999870536616072	0.150019955821335
12122.25	100	51	0	51	2	1	0	2	2	0	2	67.5	112.5	-2.54827216900785	2.04248029055543	0.266666666666667	0	0	0	79.5456476205727	79.6456502780784	0.100002657505684	0.2666909013642
12193.25	100	52	0	52	2	1	0	2	2	0	1	112.5	67.5	-0.609961050852171	0.594672238337981	0.183333333333333	0	0	0	79.8289880366065	79.928968751221	0.0999807146145031	0.183337758528069
12247.5	100	53	0	53	2	1	0	2	2	0	1	22.5	157.5	-1.7811121368482	0.258538786891824	0.116666666666667	0	0	0	80.0456621272024	80.1456401599571	0.0999780327547342	0.116693375981413
12322.5	100	54	0	54	2	1	0	2	2	3	1	22.5	67.5	0.435220638080732	-0.19542274653662	0.2	0	0	0	80.3456732693594	80.4456522773253	0.0999790079658851	0.200033109402284
12418.25	100	55	0	55	2	1	0	2	2	3	1	112.5	67.5	-0.717629950725625	2.51767308011257	0.283333333333333	0	0	0	80.7290139048127	80.8290014461381	0.0999875413253903	0.283361627487466
12497.5	100	56	0	56	2	1	0	2	2	3	2	157.5	22.5	-1.78757115867221	-0.880767346423619	0.216666666666667	0	0	0	81.0456723672105	81.1456499124179	0.0999775452073663	0.216670921072364
12555.75	100	57	0	57	2	1	0	2	2	1	-1	0	135	2.96936328941373	-1.87157659417893	0.133333333333333	0	0	0	81.2789969478035	81.3789986300981	0.100001682294533	0.133347035385668
12626.5	100	58	0	58	2	1	0	2	2	3	1	22.5	157.5	-0.691249960732225	-0.0097302030928037	0.183333333333333	0	0	0	81.5623615009245	81.662343922304	0.0999824213795364	0.183362870826386
12726.5	100	59	0	59	2	1	0	2	2	3	1	112.5	157.5	0.362686405237539	2.95759637416565	0.3	0	0	0	81.9623706681887	82.0623550399905	0.0999843718018383	0.300026745884679
12776.5	100	60	0	60	2	1	0	2	2	3	2	67.5	22.5	1.89495791648121	1.78366842509795	0.1	0	0	0	82.1623752517626	82.2623586483533	0.0999833965906873	0.100020211772062
12864	100	61	0	61	2	1	0	2	2	3	2	67.5	112.5	-1.41742527129847	-1.05977529557474	0.25	0	0	0	82.5123861379689	82.6123727039667	0.0999865659978241	0.250027489615604
12939	100	62	0	62	2	1	0	2	2	0	1	112.5	157.5	2.64765372294999	-2.25335474691627	0.2	0	0	0	82.8123933790484	82.9123775070766	0.0999841280281544	0.20002067508176
13014	100	63	0	63	2	1	0	2	2	0	2	157.5	112.5	0.504054027374736	-0.877057202018926	0.2	0	0	0	83.1124008640181	83.2123845043825	0.0999836403643712	0.200023356941529
13114	100	64	0	64	2	1	0	2	2	0	2	67.5	22.5	-0.0640656157219373	-2.58150019622612	0.3	0	0	0	83.5124171017669	83.6123948906315	0.0999777888646349	0.300032597384416
13185	100	65	0	65	2	1	0	2	2	0	2	67.5	112.5	0.70325098946339	-1.9633985400748	0.183333333333333	0	0	0	83.7957597119967	83.8957345752278	0.0999748632311821	0.183364821365103
13255.75	100	66	0	66	2	1	0	2	2	0	1	22.5	67.5	-3.08828421781001	1.30273825119611	0.183333333333333	0	0	0	84.0790942766471	84.1790781607851	0.0999838841380551	0.183359701419249
13351.5	100	67	0	67	2	1	0	2	2	0	1	112.5	67.5	1.12277953448342	1.43279594580553	0.283333333333333	0	0	0	84.4623900511069	84.5624241600744	0.10003410896752	0.283311890321784
13430.75	100	68	0	68	2	1	0	2	2	0	2	157.5	22.5	-0.112744065030066	-2.84721063923576	0.216666666666667	0	0	0	84.7791177554755	84.8790945691289	0.099976813653484	0.216693595401011
13480.75	100	69	0	69	2	1	0	2	2	0	1	112.5	157.5	0.0844536552362847	2.76520547702675	0.1	0	0	0	84.9791203886271	85.079101834679	0.0999814460519701	0.100025819498114
13564	100	70	0	70	2	1	0	2	2	0	2	157.5	22.5	-2.05104014956134	0.929750201301832	0.233333333333333	0	0	0	85.3124656686559	85.4124488213565	0.0999831527005881	0.23336383397691
13660	100	71	0	71	2	1	0	2	2	0	2	157.5	112.5	1.33651995383982	0.700268833244008	0.283333333333333	0	0	0	85.6958070354303	85.7957889691461	0.0999819337157533	0.283358214073814
13718.25	100	72	0	72	2	1	0	2	2	0	2	67.5	22.5	2.96808785265765	2.27637862279821	0.133333333333333	0	0	0	85.9291472198674	86.0291284221457	0.0999812022782862	0.133358250721358
13805.75	100	73	0	73	2	1	0	2	2	0	2	67.5	22.5	1.63462997646883	-2.02649564316372	0.25	0	0	0	86.2791549364338	86.3791366263758	0.0999816899420694	0.250026514288038
13897.5	100	74	0	74	2	1	0	2	2	0	1	22.5	157.5	-0.94098481430379	-2.74536555512509	0.266666666666667	0	0	0	86.6458370361943	86.7458179946989	0.0999809585046023	0.266700409818441
13989	100	75	0	75	2	1	0	2	2	0	2	157.5	22.5	2.54894569661141	-0.354359730859681	0.266666666666667	0	0	0	87.0125186484074	87.1124915612163	0.0999729128088802	0.26670065370854
14051.5	100	76	0	76	2	1	0	2	2	0	2	157.5	22.5	0.208389466053561	-1.43311906375659	0.15	0	0	0	87.2625188312959	87.3624939383008	0.099975107004866	0.15002727007959
14105.75	100	77	0	77	2	1	0	2	2	0	1	112.5	67.5	1.06241153993151	-1.12482771541596	0.116666666666667	0	0	0	87.4791882896097	87.5791697356617	0.0999814460519701	0.116694351308979
14168.25	100	78	0	78	2	1	0	2	2	0	2	157.5	112.5	-2.73039153177681	0.482493641552876	0.15	0	0	0	87.7291955428664	87.8291733318474	0.0999777889810503	0.150025807204656
14260	100	79	0	79	2	1	0	2	2	0	2	157.5	112.5	0.575297964321541	-2.41013668781432	0.266666666666667	0	0	0	88.0958678903989	88.1958291002084	0.0999612098094076	0.266694558551535
14310	100	80	0	80	2	1	0	2	2	0	1	22.5	67.5	2.66994373003315	0.931157130597319	0.1	0	0	0	88.2958778378088	88.3958585524233	0.0999807146145031	0.100048737600446
14360	100	81	0	81	2	1	0	2	2	3	1	22.5	157.5	2.6530723129363	1.32318382435285	0.1	0	0	0	88.4958799832966	88.5958624046762	0.0999824213795364	0.100021430873312
14447.5	100	82	0	82	2	1	0	2	2	3	1	22.5	67.5	-0.255689979732168	2.87383868492996	0.25	0	0	0	88.8458898941753	88.9458710964536	0.0999812022782862	0.250027489499189
14539	100	83	0	83	2	1	0	2	2	3	2	157.5	22.5	2.37203999972863	-1.71056370746559	0.266666666666667	0	0	0	89.2125739444746	89.3125519772293	0.0999780327547342	0.266702848020941
14618.25	100	84	0	84	2	1	0	2	2	2	-1	45	0	-0.249312510755316	-2.80141587038851	0.216666666666667	0	0	0	89.5292492298177	89.6292275063461	0.0999782765284181	0.216697252588347
14718.25	100	85	0	85	2	1	0	2	2	3	1	112.5	67.5	3.06045725448785	1.67494043373678	0.3	0	0	0	89.9292520580348	90.0292376488214	0.0999855907866731	0.300024551688693
14814	100	86	0	86	2	1	0	2	2	3	1	112.5	157.5	0.713039695756478	-0.0638302467012593	0.283333333333333	0	0	0	90.3125992763089	90.412577796611	0.099978520302102	0.283361627487466
14872.5	100	87	0	87	2	1	0	2	2	3	2	157.5	112.5	-0.957329697430544	2.33339292548733	0.133333333333333	0	0	0	90.5459360473324	90.645917005837	0.0999809585046023	0.133358250721358
14947.5	100	88	0	88	2	1	0	2	2	3	2	67.5	112.5	1.63126684144081	0.280426127033444	0.2	0	0	0	90.8459454827243	90.9459254660178	0.0999799832934514	0.200028476887383
15035	100	89	0	89	2	1	0	2	2	0	1	22.5	67.5	2.75528831611845	0.763599167147558	0.25	0	0	0	91.1959546621656	91.2959441540297	0.0999894918641075	0.250029196147807
15130.75	100	90	0	90	2	1	0	2	2	0	2	67.5	112.5	3.12732531233542	-2.57266593845191	0.283333333333333	0	0	0	91.5793018804397	91.6792657722253	0.0999638917855918	0.283357726410031
15226.5	100	91	0	91	2	1	0	2	2	0	1	22.5	157.5	-1.53754016471058	0.0655183445311756	0.283333333333333	0	0	0	91.9626313006738	92.0626103086397	0.0999790079658851	0.283365528448485
15276.5	100	92	0	92	2	1	0	2	2	0	1	112.5	67.5	0.786227873767149	1.03469981403231	0.1	0	0	0	92.1626344214892	92.2626190370647	0.0999846155755222	0.100024112849496
15368.25	100	93	0	93	2	1	0	2	2	0	1	22.5	67.5	2.09504694111491	-0.0269543012387512	0.266666666666667	0	0	0	92.5293301745551	92.6293145463569	0.0999843718018383	0.266711137490347
15451.5	100	94	0	94	2	1	0	2	2	0	2	67.5	112.5	1.37955867275532	-0.620181071569478	0.233333333333333	0	0	0	92.8626744793728	92.9626566568622	0.0999821774894372	0.23335993301589
15530.75	100	95	0	95	2	1	0	2	2	0	2	67.5	112.5	-2.80180148294208	1.2035375756217	0.216666666666667	0	0	0	93.1793512275908	93.2793404755648	0.0999892479740083	0.216694570728578
15618.25	100	96	0	96	2	1	0	2	2	0	2	157.5	112.5	-0.00325098401889523	-2.07720251094581	0.25	0	0	0	93.5293604070321	93.6293442911701	0.0999838841380551	0.25001993146725
15676.5	100	97	0	97	2	1	0	2	2	0	1	22.5	157.5	3.0931853480796	-0.716308052357634	0.133333333333333	0	0	0	93.7626991284778	93.8626644831384	0.0999653546605259	0.133354837307706
15751.75	100	98	0	98	2	1	0	2	2	0	1	22.5	67.5	1.10381435159639	-0.297533332645456	0.2	0	0	0	94.0627117335098	94.1626885471633	0.099976813653484	0.200047250371426
15822.5	100	99	0	99	2	1	0	2	2	0	1	112.5	157.5	-2.16237010930775	2.38039317326645	0.183333333333333	0	0	0	94.3460470294813	94.446030426072	0.0999833965906873	0.183358482317999
15876.75	100	100	0	100	2	1	0	2	2	0	1	22.5	67.5	-1.36562000370092	-0.30579439831183	0.116666666666667	0	0	0	94.5627235582797	94.6627037852304	0.09998022695072	0.116693132207729
15968.25	100	101	0	101	2	1	0	2	2	3	2	157.5	112.5	-0.20488212327734	0.573901879044282	0.266666666666667	0	0	0	94.9294000504306	95.0293800336076	0.099979983177036	0.266696265200153
16035	100	102	0	102	2	1	0	2	2	3	1	22.5	157.5	-3.13015781333973	-2.39733296666043	0.166666666666667	0	0	0	95.1960780298105	95.2960526492679	0.0999746194574982	0.166697996202856
16110	100	103	0	103	2	1	0	2	2	3	1	112.5	67.5	-2.92785599019247	2.64715282417678	0.2	0	0	0	95.4960816138191	95.5960437989561	0.0999621851369739	0.200028964551166
16172.5	100	104	0	104	2	1	0	2	2	2	-1	135	0	2.19932779201923	2.87862528889349e-05	0.15	0	0	0	95.746087891981	95.8460671437206	0.099979251739569	0.150044093024917
16230.75	100	105	0	105	2	1	0	2	2	3	1	112.5	157.5	0.404048163413083	-2.0414433783935	0.133333333333333	0	0	0	95.979427832528	96.0794122043299	0.0999843718018383	0.133360688807443
16310	100	106	0	106	2	1	0	2	2	3	2	67.5	22.5	-1.85721443950418	-0.674702017046068	0.216666666666667	0	0	0	96.2961026302073	96.3960679848678	0.0999653546605259	0.216690425877459
16405.75	100	107	0	107	2	1	0	2	2	3	2	157.5	22.5	1.10846441875038	-0.265823272419863	0.283333333333333	0	0	0	96.679446922848	96.7794254431501	0.099978520302102	0.28337893798016
16489.25	100	108	0	108	2	1	0	2	2	3	1	22.5	67.5	-0.0108201330497297	1.30269418898165	0.233333333333333	0	0	0	97.0127831818536	97.1127673098817	0.0999841280281544	0.233357738703489
16576.75	100	109	0	109	2	1	0	2	2	0	1	112.5	67.5	-2.30351434278316	-1.55228298821132	0.25	0	0	0	97.3627947993809	97.4627799026202	0.0999851032393053	0.250027489499189
16635	100	110	0	110	2	1	0	2	2	0	2	157.5	112.5	1.19146586044385	1.05993926419029	0.133333333333333	0	0	0	97.5961337647168	97.6960996070411	0.0999658423243091	0.133353862096556
16701.75	100	111	0	111	2	1	0	2	2	0	2	67.5	22.5	1.32642706946444	-1.75558773000516	0.166666666666667	0	0	0	97.8627954089316	97.9627724664751	0.0999770575435832	0.166695801890455
16751.75	100	112	0	112	2	1	0	2	2	0	2	157.5	112.5	-1.2396208347924	-2.98488926252125	0.1	0	0	0	98.0627958477708	98.1627724176506	0.0999765698798001	0.100023381295614
16843.25	100	113	0	113	2	1	0	2	2	0	1	112.5	67.5	-1.52063935773157	-0.456756885879336	0.266666666666667	0	0	0	98.42947989807	98.5294491536915	0.099969255621545	0.266707480419427
16926.75	100	114	0	114	2	1	0	2	2	0	1	112.5	157.5	-1.1744606739855	3.0369412565478	0.233333333333333	0	0	0	98.7628100619186	98.8627934583928	0.099983396474272	0.233360908227041
17014.25	100	115	0	115	2	1	0	2	2	0	1	112.5	157.5	-1.04484934626887	-1.03037187241251	0.25	0	0	0	99.1128226546571	99.2128033692716	0.0999807146145031	0.250029196264222
17076.75	100	116	0	116	2	1	0	2	2	0	2	67.5	112.5	2.8173912723154	2.00888831227066	0.15	0	0	0	99.3628306394676	99.4628371979343	0.100006558466703	0.150027270196006
17139.25	100	117	0	117	2	1	0	2	2	0	2	67.5	22.5	-1.18015311765306	-0.217224232582987	0.15	0	0	0	99.6128581289668	99.7128405502299	0.0999824212631211	0.150020931032486
17226.75	100	118	0	118	2	1	0	2	2	0	1	22.5	157.5	0.897052770941063	2.25078466056022	0.25	0	0	0	99.962868771283	100.062832663069	0.0999638917855918	0.250028221053071
17289.25	100	119	0	119	2	1	0	2	2	0	1	112.5	157.5	0.113629591317453	-0.158042469579881	0.15	0	0	0	100.212879437953	100.312857226818	0.0999777888646349	0.150046774884686
17339.25	100	120	0	120	2	1	0	2	2	0	2	157.5	22.5	2.6420576285877	-2.73556713807073	0.1	0	0	0	100.412889141473	100.512860347633	0.0999712061602622	0.100031914655119
17397.5	100	121	0	121	2	1	0	2	2	0	2	67.5	112.5	0.053152314145013	-2.26510372811696	0.133333333333333	0	0	0	100.646219085902	100.746200775844	0.0999816899420694	0.133358738268726
17447.5	100	122	0	122	2	1	0	2	2	0	2	67.5	22.5	-1.81827537455858	-2.95075318134441	0.1	0	0	0	100.846206846647	100.946207309957	0.100000463309698	0.10000607080292
17530.75	100	123	0	123	2	1	0	2	2	0	2	157.5	112.5	0.604393979238514	1.22994926469912	0.233333333333333	0	0	0	101.179568949505	101.279550883221	0.0999819337157533	0.233361639548093
17585	100	124	0	124	2	1	0	2	2	0	2	157.5	112.5	2.18751581547082	0.264864668231144	0.116666666666667	0	0	0	101.396231337334	101.496214246261	0.0999829089269042	0.116680454113521
17651.75	100	125	0	125	2	1	0	2	2	0	2	157.5	112.5	-2.20201566733918	-2.8378375305515	0.166666666666667	0	0	0	101.662912242464	101.76288588671	0.0999736442463472	0.166697996202856
17735	100	126	0	126	2	1	0	2	2	0	1	22.5	67.5	0.0293446212667403	0.290004007630706	0.233333333333333	0	0	0	101.996250695782	102.096227265778	0.0999765699962154	0.233364809071645
17835	100	127	0	127	2	1	0	2	2	0	1	22.5	157.5	-2.58152702191227	-3.10247582413557	0.3	0	0	0	102.396257912624	102.496240821551	0.0999829089269042	0.300030646845698
17901.75	100	128	0	128	2	1	0	2	2	0	2	67.5	112.5	-2.88416358025828	1.97442584191275	0.166666666666667	0	0	0	102.662930772058	102.76293586765	0.100005095591769	0.166689950507134
18001.75	100	129	0	129	2	1	0	2	2	0	2	157.5	112.5	2.82480340595551	-1.02047300982734	0.3	0	0	0	103.062947985018	103.162925042445	0.0999770574271679	0.300012117368169
18068.25	100	130	0	130	2	1	0	2	2	0	2	157.5	22.5	0.385177633848468	0.178916326480989	0.166666666666667	0	0	0	103.329616455827	103.429600827629	0.0999843718018383	0.166691413382068
18160	100	131	0	131	2	1	0	2	2	0	1	112.5	157.5	0.14220332768893	-1.64314705215814	0.266666666666667	0	0	0	103.696293191868	103.796278782655	0.0999855907866731	0.266692364239134
18230.75	100	132	0	132	2	1	0	2	2	0	2	157.5	22.5	-2.7566231180524	-0.807254604598485	0.183333333333333	0	0	0	103.979638240184	104.079620661563	0.0999824213795364	0.18335945752915
18330.75	100	133	0	133	2	1	0	2	2	0	1	112.5	67.5	-2.43842326105799	-3.13211869631341	0.3	0	0	0	104.379641068401	104.479628122179	0.0999870537780225	0.300020406837575
18397.5	100	134	0	134	2	1	0	2	2	0	1	112.5	67.5	1.10192971631061	0.252169023043626	0.166666666666667	0	0	0	104.646304906928	104.746288791066	0.0999838841380551	0.166676784749143
18476.75	100	135	0	135	2	1	0	2	2	0	1	112.5	157.5	1.80571547478619	-1.59153052884241	0.216666666666667	0	0	0	104.963000428397	105.062981630675	0.0999812022782862	0.216711637331173
18555.75	100	136	0	136	2	1	0	2	2	0	2	157.5	112.5	2.24056597722255	-0.211305890430213	0.216666666666667	0	0	0	105.279678883264	105.379663986503	0.0999851032393053	0.216697252588347
18639.25	100	137	0	137	2	1	0	2	2	0	1	112.5	67.5	-1.79877152006383	1.8720363474021	0.233333333333333	0	0	0	105.613018311909	105.712985373219	0.0999670613091439	0.233354325406253
18718.25	100	138	0	138	2	1	0	2	2	0	2	67.5	22.5	-0.90426107294935	0.729077559515703	0.216666666666667	0	0	0	105.929698473425	106.029660902335	0.0999624289106578	0.216713100206107
18814.25	100	139	0	139	2	1	0	2	2	0	2	67.5	22.5	-1.03852566350038	0.794045407989019	0.283333333333333	0	0	0	106.313038377441	106.413024455891	0.0999860784504563	0.283377475105226
18901.75	100	140	0	140	2	1	0	2	2	3	2	67.5	22.5	-0.862679412986294	-1.02578647150075	0.25	0	0	0	106.663057553	106.76303144102	0.0999738880200312	0.250033097108826
18951.75	100	141	0	141	2	1	0	2	2	3	1	112.5	157.5	-0.0151823069815267	0.92743678201146	0.1	0	0	0	106.863062380464	106.963037731242	0.0999753507785499	0.100030939443968
19051.75	100	142	0	142	2	1	0	2	2	3	1	22.5	157.5	2.32104411682654	-0.667041681837308	0.3	0	0	0	107.263067402877	107.363051287131	0.0999838842544705	0.300029671634547
19147.5	100	143	0	143	2	1	0	2	2	3	1	112.5	67.5	-0.244657347804318	2.73298290845353	0.283333333333333	0	0	0	107.646404381259	107.746388753061	0.0999843718018383	0.283353094127961
22139.25	100	144	1	0	2	2	90	2	2	3	1	112.5	157.5	0.204850079135684	1.55206456055195	0.2	0	0	0	119.613406944438	119.713375468622	0.099968524184078	-1
22218.5	100	145	1	1	2	2	90	2	2	3	1	22.5	157.5	1.99439377783844	0.961766099907996	0.216666666666667	0	0	0	119.930089300149	120.030034662457	0.0999453623080626	0.216713831527159
22318.5	100	146	1	2	2	2	90	2	2	3	2	67.5	22.5	-2.57295009496181	2.88297478352294	0.3	0	0	0	120.330079937936	120.430062115425	0.0999821774894372	0.300045275478624
22385	100	147	1	3	2	2	90	2	2	3	2	157.5	112.5	2.80004175428456	-2.40540155695958	0.166666666666667	0	0	0	120.596758161206	120.696735218633	0.0999770574271679	0.166696045780554
22443.5	100	148	1	4	2	2	90	2	2	0	2	67.5	112.5	1.09654993150809	0.615747952398296	0.133333333333333	0	0	0	120.830093469354	120.930077353492	0.0999838841380551	0.133358250721358
22543.5	100	149	1	5	2	2	90	2	2	0	2	67.5	22.5	-2.80340637548079	0.780539005921865	0.3	0	0	0	121.230102636619	121.330071160803	0.099968524184078	0.300025283126161
22626.75	100	150	1	6	2	2	90	2	2	0	2	157.5	112.5	1.30096567153661	-0.285128721541213	0.233333333333333	0	0	0	121.563451573718	121.663432044559	0.0999804708408192	0.233380412915722
22710	100	151	1	7	2	2	90	2	2	0	2	157.5	22.5	-0.618721037633213	2.91035477491648	0.233333333333333	0	0	0	121.896796853747	121.996771473205	0.0999746194574982	0.23336480918806
22789.25	100	152	1	8	2	2	90	2	2	0	1	22.5	157.5	0.092239127676025	2.93721400193091	0.216666666666667	0	0	0	122.213467750465	122.313447733759	0.0999799832934514	0.21669627726078
22839.25	100	153	1	9	2	2	90	2	2	0	2	67.5	112.5	-2.50712876380719	-0.687615901966565	0.1	0	0	0	122.41346989607	122.513453536434	0.0999836403643712	0.100022162310779
22889.25	100	154	1	10	2	2	90	2	2	0	1	22.5	157.5	0.0646730270517297	0.730686194828079	0.1	0	0	0	122.613482037792	122.713456901023	0.0999748632311821	0.100028501357883
22964.25	100	155	1	11	2	2	90	2	2	0	1	22.5	157.5	0.125194700788745	1.66958864579686	0.2	0	0	0	122.913470505504	123.013453902095	0.0999833965906873	0.200013604480773
23022.75	100	156	1	12	2	2	90	2	2	0	2	157.5	22.5	1.77470934102888	1.23221626046113	0.133333333333333	0	0	0	123.146803375683	123.246778726461	0.0999753507785499	0.133349473588169
23072.75	100	157	1	13	2	2	90	2	2	0	1	112.5	67.5	0.508192979750679	-0.862404208988124	0.1	0	0	0	123.346805764944	123.446786235785	0.0999804708408192	0.100027038482949
23160.25	100	158	1	14	2	2	90	2	2	0	1	22.5	157.5	1.28693532886736	1.87374360809146	0.25	0	0	0	123.696814700612	123.796814676258	0.0999999756459147	0.250028464826755
23247.75	100	159	1	15	2	2	90	2	2	0	1	112.5	157.5	1.47363912485507	-0.950026155372063	0.25	0	0	0	124.046831438085	124.146834827145	0.100003389059566	0.250016761827283
23347.75	100	160	1	16	2	2	90	2	2	0	1	22.5	157.5	-1.75214965687199	-2.21855766920212	0.3	0	0	0	124.446858891053	124.546845213394	0.0999863223405555	0.300024063908495
23447.75	100	161	1	17	2	2	90	2	2	0	1	112.5	67.5	-2.98599612354339	1.03402181172344	0.3	0	0	0	124.846870984067	124.94685633108	0.0999853470129892	0.300025770673528
23514.25	100	162	1	18	2	2	90	2	2	0	1	112.5	157.5	-0.134860774761106	0.937717576458502	0.166666666666667	0	0	0	125.113546769251	125.213507247623	0.0999604783719406	0.166690438170917
23576.75	100	163	1	19	2	2	90	2	2	0	2	67.5	22.5	-2.32900899463129	-0.574900334473216	0.15	0	0	0	125.363553778734	125.463514500996	0.0999607222620398	0.150046531111002
23664.25	100	164	1	20	2	2	90	2	2	3	1	112.5	157.5	-2.25075521001974	-0.0072473332268479	0.25	0	0	0	125.713562714402	125.813545135665	0.0999824212631211	0.250048213405535
23756	100	165	1	21	2	2	90	2	2	3	2	157.5	22.5	-1.12042160660436	3.06573975300037	0.266666666666667	0	0	0	126.080238962779	126.180218214518	0.099979251739569	0.266693827114068
23835.25	100	166	1	22	2	2	90	2	2	3	2	157.5	112.5	0.236839323674128	1.93564140953285	0.216666666666667	0	0	0	126.396909615723	126.496891061775	0.0999814460519701	0.216691401205026
23897.75	100	167	1	23	2	2	90	2	2	2	-1	135	90	0.727248510709146	-0.584338575735859	0.15	0	0	0	126.646921257605	126.74689929036	0.0999780327547342	0.150030195829459
23956	100	168	1	24	2	2	90	2	2	3	1	112.5	67.5	0.91962744146107	2.58685048112171	0.133333333333333	0	0	0	126.880255346769	126.980238987133	0.0999836403643712	0.133356056408957
24022.75	100	169	1	25	2	2	90	2	2	3	1	22.5	157.5	2.78123626859425	0.441973576073927	0.166666666666667	0	0	0	127.14693430136	127.246912821778	0.0999785204185173	0.166695314226672
24097.75	100	170	1	26	2	2	90	2	2	3	1	22.5	67.5	-2.50017387444272	-0.597392999639338	0.2	0	0	0	127.446940323454	127.546924451482	0.0999841280281544	0.200027501676232
24151.75	100	171	1	27	2	2	90	2	2	3	2	67.5	112.5	0.364142899298197	0.922645472780165	0.116666666666667	0	0	0	127.663594421814	127.763578549726	0.0999841279117391	0.116669970331714
24222.75	100	172	1	28	2	2	90	2	2	0	1	22.5	157.5	-2.59746223182053	1.78177350217613	0.183333333333333	0	0	0	127.946953611099	128.046937495354	0.0999838842544705	0.183375061373226
24281	100	173	1	29	2	2	90	2	2	0	2	67.5	22.5	1.06827020981823	2.48992211465079	0.133333333333333	0	0	0	128.180292088888	128.280245253001	0.0999531641136855	0.133354593534023
24343.5	100	174	1	30	2	2	90	2	2	0	1	22.5	157.5	-0.393390107683493	1.07005628894255	0.15	0	0	0	128.430285445065	128.530282982509	0.0999975374434143	0.150040192063898
24439.25	100	175	1	31	2	2	90	2	2	0	1	112.5	157.5	-2.26091573421751	1.05187391176695	0.283333333333333	0	0	0	128.813646316645	128.913626056048	0.0999797394033521	0.283363334136084
24493.5	100	176	1	32	2	2	90	2	2	0	1	112.5	157.5	-1.19045562539253	-0.623094420187796	0.116666666666667	0	0	0	129.030322601669	129.130298440112	0.099975838442333	0.11669654562138
24593.5	100	177	1	33	2	2	90	2	2	0	2	157.5	22.5	1.00861344661553	-2.88854517330632	0.3	0	0	0	129.430327624083	129.530311508337	0.0999838842544705	0.300029183970764
24693.5	100	178	1	34	2	2	90	2	2	0	1	22.5	67.5	-0.168270359254033	-0.284456668155129	0.3	0	0	0	129.830337766558	129.930324088898	0.0999863223405555	0.300026258220896
24768.5	100	179	1	35	2	2	90	2	2	0	2	67.5	112.5	2.79227265339348	-2.42337440306805	0.2	0	0	0	130.13032940391	130.230332305189	0.100002901279368	0.200005315011367
24831	100	180	1	36	2	2	90	2	2	0	2	157.5	22.5	-0.909948351362786	2.77889747571557	0.15	0	0	0	130.380351529573	130.480332975741	0.0999814461683854	0.150019224383868
24914.25	100	181	1	37	2	2	90	2	2	0	2	67.5	22.5	-1.00488532489913	-0.864247185729691	0.233333333333333	0	0	0	130.71369778493	130.813676549005	0.0999787640757859	0.23336480918806
24997.75	100	182	1	38	2	2	90	2	2	0	1	112.5	67.5	2.65515418638523	0.659814923685347	0.233333333333333	0	0	0	131.047039651545	131.147024998558	0.0999853470129892	0.233363102539442
25089.25	100	183	1	39	2	2	90	2	2	0	1	112.5	67.5	0.665851370407965	1.46499127555617	0.266666666666667	0	0	0	131.413715168484	131.513692957466	0.0999777889810503	0.266690169926733
25189.25	100	184	1	40	2	2	90	2	2	0	2	157.5	112.5	-2.46901821495575	-2.01922108303588	0.3	0	0	0	131.8137167776	131.913698711316	0.0999819337157533	0.300023820134811
25281	100	185	1	41	2	2	90	2	2	0	2	67.5	22.5	1.78571684483261	2.09552195931302	0.266666666666667	0	0	0	132.180398389813	132.280377641669	0.0999792518559843	0.266699678497389
25368.5	100	186	1	42	2	2	90	2	2	0	1	112.5	67.5	-0.858203837321653	-1.09547730656197	0.25	0	0	0	132.53040635027	132.630388040096	0.099981689825654	0.250028708600439
25431	100	187	1	43	2	2	90	2	2	0	1	112.5	67.5	2.81161825324756	-2.63611791810263	0.15	0	0	0	132.780416529276	132.880400657305	0.0999841280281544	0.150028489180841
25485.25	100	188	1	44	2	2	90	2	2	0	2	67.5	22.5	0.853694588750435	0.626880970519253	0.116666666666667	0	0	0	132.997085256153	133.09706548322	0.0999802270671353	0.116684598848224
25551.75	100	189	1	45	2	2	90	2	2	0	1	22.5	157.5	1.9157585648235	-0.613603006392724	0.166666666666667	0	0	0	133.263762747985	133.363744194037	0.0999814460519701	0.166697264765389
25626.75	100	190	1	46	2	2	90	2	2	0	2	157.5	112.5	2.48783540916764	2.63336087985667	0.2	0	0	0	133.563756091986	133.663737781812	0.099981689825654	0.200011897948571
25689.25	100	191	1	47	2	2	90	2	2	0	1	22.5	67.5	0.0586460498201276	-0.34759205618983	0.15	0	0	0	133.81376139482	133.913765515201	0.100004120380618	0.150023613008671
25739.25	100	192	1	48	2	2	90	2	2	0	2	157.5	112.5	2.93584603621281	-2.5481522056939	0.1	0	0	0	134.013788652723	134.113773512188	0.0999848594656214	0.10002313752193
25793.5	100	193	1	49	2	2	90	2	2	0	1	112.5	67.5	-2.98088339970713	-3.02572961920813	0.116666666666667	0	0	0	134.230459817685	134.330444920924	0.0999851032393053	0.116686305496842
25889.25	100	194	1	50	2	2	90	2	2	0	1	22.5	157.5	-1.00284464791178	-2.95071502074657	0.283333333333333	0	0	0	134.613803866436	134.713772146846	0.0999682804103941	0.283358945511281
25964.25	100	195	1	51	2	2	90	2	2	0	2	157.5	22.5	2.12235790216204	-0.0410571053311988	0.2	0	0	0	134.913815739914	135.013780363137	0.0999646232230589	0.200043593067676
26035.25	100	196	1	52	2	2	90	2	2	0	1	22.5	67.5	-3.08995640399809	1.34563079707858	0.183333333333333	0	0	0	135.197134944494	135.29713199439	0.0999970498960465	0.18335458135698
26093.5	100	197	1	53	2	2	90	2	2	0	1	112.5	157.5	1.08361787478788	-2.81957615543534	0.133333333333333	0	0	0	135.430492683197	135.530470472178	0.0999777889810503	0.133360688807443
26176.75	100	198	1	54	2	2	90	2	2	0	1	22.5	67.5	3.13646773718317	-1.06926056827294	0.233333333333333	0	0	0	135.763833330828	135.863796247402	0.0999629165744409	0.233362858649343
26247.75	100	199	1	55	2	2	90	2	2	0	2	157.5	22.5	1.35299521299171	-0.135677873745058	0.183333333333333	0	0	0	136.047173502971	136.147153242491	0.0999797395197675	0.183377255569212
26301.75	100	200	1	56	2	2	90	2	2	0	1	22.5	67.5	2.2754964489394	2.49807257425266	0.116666666666667	0	0	0	136.263844180387	136.363826114102	0.0999819337157533	0.116690937895328
26385.25	100	201	1	57	2	2	90	2	2	0	1	112.5	157.5	-2.6594942178334	2.95678827520147	0.233333333333333	0	0	0	136.597188972752	136.697172125452	0.0999831527005881	0.233362858649343
26464.5	100	202	1	58	2	2	90	2	2	0	2	157.5	22.5	0.253329591772849	2.35682092258244	0.216666666666667	0	0	0	136.913862307556	137.013845216599	0.0999829090433195	0.216690182103775
26535.25	100	203	1	59	2	2	90	2	2	0	1	112.5	157.5	0.688750575058063	0.87261096828913	0.183333333333333	0	0	0	137.197202479816	137.297188070603	0.0999855907866731	0.183357263216749
26614.5	100	204	1	60	2	2	90	2	2	0	1	112.5	157.5	-0.404993237918521	0.471824655285903	0.216666666666667	0	0	0	137.513879959472	137.613847020781	0.0999670613091439	0.216691888868809
26714.5	100	205	1	61	2	2	90	2	2	3	2	67.5	22.5	-0.5063552124299	-1.74074776880393	0.3	0	0	0	137.913911800948	138.013871791773	0.0999599908245727	0.300064780167304
26810.25	100	206	1	62	2	2	90	2	2	3	1	22.5	67.5	1.82578202025747	0.705401417701158	0.283333333333333	0	0	0	138.297233663034	138.397213402437	0.0999797394033521	0.28336187126115
26902	100	207	1	63	2	2	90	2	2	3	2	157.5	22.5	-2.1199744810606	-2.09896539888279	0.266666666666667	0	0	0	138.663914056146	138.763893308002	0.0999792518559843	0.26670065370854
26972.75	100	208	1	64	2	2	90	2	2	1	-1	90	135	-2.85894690868148	-1.23653378720291	0.183333333333333	0	0	0	138.947248376906	139.047231042059	0.0999826651532203	0.183355068904348
27052	100	209	1	65	2	2	90	2	2	3	1	22.5	157.5	0.584801420726811	2.07467706039718	0.216666666666667	0	0	0	139.263929269859	139.363891698886	0.0999624290270731	0.216698227799498
27106	100	210	1	66	2	2	90	2	2	3	1	112.5	157.5	2.9309192824833	0.428045832040053	0.116666666666667	0	0	0	139.480600434821	139.580581393326	0.0999809585046023	0.11670873593539
27168.5	100	211	1	67	2	2	90	2	2	3	2	157.5	112.5	2.05542290326736	1.42127001803205	0.15	1	0.675492087029852	1	139.730606956757	139.830591328559	0.0999843718018383	0.150025563430972
27243.5	100	212	1	68	2	2	90	2	2	3	1	112.5	67.5	1.08800434483426	-0.217526847701541	0.2	0	0	0	140.030612491304	140.130597594427	0.09998510312289	0.200021162745543
27310.25	100	213	1	69	2	2	90	2	2	0	1	112.5	67.5	-1.28954683752835	-1.38614581972816	0.166666666666667	0	0	0	140.297270965879	140.397253143485	0.0999821776058525	0.166673371451907
27410.25	100	214	1	70	2	2	90	2	2	0	2	67.5	112.5	2.54060951583672	0.0232096617558422	0.3	0	0	0	140.697297443636	140.797283278313	0.0999858346767724	0.300044300151058
27472.75	100	215	1	71	2	2	90	2	2	0	2	67.5	112.5	-2.88893635702416	0.459800225337912	0.15	0	0	0	140.947303721681	141.047287605936	0.0999838842544705	0.150020443368703
27547.75	100	216	1	72	2	2	90	2	2	0	2	67.5	22.5	-1.5919736896712	-1.62268776963644	0.2	0	0	0	141.2473129133	141.347295090905	0.0999821776058525	0.200025307363831
27639.5	100	217	1	73	2	2	90	2	2	0	1	112.5	157.5	1.81001367109446	2.17038364133653	0.266666666666667	0	0	0	141.613991112215	141.713971339283	0.0999802270671353	0.266696021310054
27693.5	100	218	1	74	2	2	90	2	2	0	1	22.5	157.5	2.479961583182	3.02315957155605	0.116666666666667	0	0	0	141.830664959038	141.930643479456	0.0999785204185173	0.116693619755097
27781	100	219	1	75	2	2	90	2	2	0	1	22.5	67.5	-0.610461292993985	-2.00303722305706	0.25	0	0	0	142.180672919494	142.280655828421	0.0999829089269042	0.250029440037906
27847.75	100	220	1	76	2	2	90	2	2	0	2	157.5	22.5	2.57093318563193	-1.62003292781998	0.166666666666667	0	0	0	142.447348217014	142.547328200191	0.099979983177036	0.166692388593219
27939.5	100	221	1	77	2	2	90	2	2	0	2	157.5	112.5	-2.44503893626128	1.9563751708054	0.266666666666667	0	0	0	142.814025684376	142.913991526701	0.0999658423243091	0.266697484184988
27997.75	100	222	1	78	2	2	90	2	2	0	1	22.5	67.5	0.609151593978563	1.39386210217231	0.133333333333333	0	0	0	143.047360261204	143.147343413904	0.0999831527005881	0.133368734503165
28064.5	100	223	1	79	2	2	90	2	2	0	2	67.5	22.5	-2.71685804207871	-1.72811510985437	0.166666666666667	0	0	0	143.314038484474	143.414019686752	0.0999812022782862	0.166695070569403
28118.5	100	224	1	80	2	2	90	2	2	0	2	157.5	22.5	-1.6753733627403	0.540149776740057	0.116666666666667	0	0	0	143.530711112195	143.630691826926	0.0999807147309184	0.116691425442696
28193.5	100	225	1	81	2	2	90	2	2	0	1	22.5	67.5	-1.94829046513911	-1.645284070812	0.2	0	0	0	143.830717134289	143.93070053088	0.0999833965906873	0.200025307363831
28281	100	226	1	82	2	2	90	2	2	0	2	67.5	22.5	-3.1021328754048	2.27972189955242	0.25	0	0	0	144.180727532832	144.280706540798	0.0999790079658851	0.250027001951821
28331	100	227	1	83	2	2	90	2	2	0	2	157.5	22.5	-0.59496700018479	0.54941094864177	0.1	0	0	0	144.380732360296	144.480722583481	0.0999902231851593	0.100025819498114
28397.75	100	228	1	84	2	2	90	2	2	0	2	157.5	112.5	0.00125590243247142	0.067982241464652	0.166666666666667	0	0	0	144.647404732066	144.747390566743	0.0999858346767724	0.166682148585096
28493.5	100	229	1	85	2	2	90	2	2	0	1	22.5	67.5	-1.37590036091688	-2.12604278753717	0.283333333333333	0	0	0	145.030752925551	145.130715354579	0.0999624290270731	0.283362358808517
28589.5	100	230	1	86	2	2	90	2	2	0	2	67.5	22.5	0.952806420031798	-0.59225544350641	0.283333333333333	0	0	0	145.414091122919	145.514075007057	0.0999838841380551	0.283375768340193
28685.25	100	231	1	87	2	2	90	2	2	3	1	22.5	67.5	-2.81217320403034	-0.169968248065929	0.283333333333333	0	0	0	145.79744468024	145.897425394971	0.0999807147309184	0.283369673183188
28739.5	100	232	1	88	2	2	90	2	2	3	1	112.5	67.5	0.109570831868454	-0.868437529567543	0.116666666666667	0	0	0	146.014107555733	146.114063157933	0.0999556021997705	0.116682160762139
28831	100	233	1	89	2	2	90	2	2	3	2	67.5	22.5	0.174301933887234	-2.01136243086663	0.266666666666667	0	0	0	146.380773076438	146.480757204466	0.0999841280281544	0.266709918505512
28918.5	100	234	1	90	2	2	90	2	2	2	-1	135	90	-0.608572964714722	-1.89647406482814	0.25	0	0	0	146.730807124521	146.830784913385	0.0999777888646349	0.250049920054153
28997.75	100	235	1	91	2	2	90	2	2	3	1	22.5	157.5	2.60635014782991	1.25802657647287	0.216666666666667	0	0	0	147.047480215551	147.147462880705	0.0999826651532203	0.216695302166045
29064.5	100	236	1	92	2	2	90	2	2	3	2	157.5	112.5	-2.34594843878569	2.67005942964447	0.166666666666667	1	0.475570886279456	-1	147.314141128329	147.414124768693	0.0999836403643712	0.166678247624077
29135.25	100	237	1	93	2	2	90	2	2	3	2	157.5	22.5	-0.459360811719554	2.16113706808445	0.183333333333333	0	0	0	147.597486908082	147.697466403712	0.0999794956296682	0.183362139388919
29185.25	100	238	1	94	2	2	90	2	2	3	1	112.5	157.5	-0.252546439442403	0.723837541038088	0.1	0	0	0	147.797488322132	147.897469768301	0.0999814461683854	0.10002191842068
29264.5	100	239	1	95	2	2	90	2	2	0	2	67.5	112.5	-0.799198089531153	1.82840930654697	0.216666666666667	0	0	0	148.114164095139	148.214143103105	0.0999790079658851	0.216694326838478
29352	100	240	1	96	2	2	90	2	2	0	2	157.5	22.5	2.9762970463137	-2.30217391500384	0.25	0	0	0	148.46416084026	148.564151307335	0.0999904670752585	0.250017737154849
29418.5	100	241	1	97	2	2	90	2	2	0	2	67.5	112.5	0.451487705524877	-1.82226183324605	0.166666666666667	0	0	0	148.730856374023	148.830816608621	0.0999602345982566	0.166705066687427
29510.25	100	242	1	98	2	2	90	2	2	0	1	22.5	67.5	0.103078791002329	1.28009344859729	0.266666666666667	0	0	0	149.097522626165	149.197510167491	0.0999875413253903	0.266706017544493
29602	100	243	1	99	2	2	90	2	2	0	2	157.5	22.5	-0.377088835459	-3.13248508171655	0.266666666666667	0	0	0	149.464207651676	149.564186415868	0.0999787641922012	0.266697484184988
29672.75	100	244	1	100	2	2	90	2	2	0	2	67.5	112.5	-0.392900538427328	-2.61430176347944	0.183333333333333	0	0	0	149.747545629623	149.847523662378	0.0999780327547342	0.183359213755466
29727	100	245	1	101	2	2	90	2	2	0	2	67.5	112.5	2.8337005864568	1.75184531927009	0.116666666666667	0	0	0	149.964214112726	150.06420043495	0.0999863222241402	0.11669045034796
29785.25	100	246	1	102	2	2	90	2	2	0	1	112.5	67.5	1.87967174123693	-1.90424176123511	0.133333333333333	0	0	0	150.197556735133	150.297542326036	0.0999855909030885	0.133356300182641
29856	100	247	1	103	2	2	90	2	2	0	2	67.5	22.5	0.927172220290643	-1.9799207122149	0.183333333333333	0	0	0	150.480904221651	150.580886642914	0.0999824212631211	0.183361895615235
29939.5	100	248	1	104	2	2	90	2	2	0	2	67.5	112.5	-2.12124902763388	-0.656930192778386	0.233333333333333	0	0	0	150.814243162633	150.914226315334	0.0999831527005881	0.233356519718654
30014.5	100	249	1	105	2	2	90	2	2	0	1	112.5	157.5	0.593886176214469	2.1163189945192	0.2	0	0	0	151.114252110361	151.214235263178	0.0999831528170034	0.200025795027614
30064.5	100	250	1	106	2	2	90	2	2	0	1	112.5	157.5	-2.3383738610265	-3.07624008361178	0.1	0	0	0	151.314241333981	151.414244235377	0.100002901395783	0.10000607080292
30156.25	100	251	1	107	2	2	90	2	2	0	2	67.5	112.5	-0.936479300824586	2.37177160050943	0.266666666666667	0	0	0	151.680938306265	151.780922190403	0.0999838841380551	0.266694070887752
30239.5	100	252	1	108	2	2	90	2	2	0	1	22.5	157.5	-2.99687334209669	-1.22615431299025	0.233333333333333	0	0	0	152.014275784371	152.114255279885	0.0999794955132529	0.233353593968786
30318.75	100	253	1	109	2	2	90	2	2	0	2	67.5	22.5	1.28916700346741	0.446285577371146	0.216666666666667	0	0	0	152.330947412527	152.430937391939	0.0999899794114754	0.216692132642493
30414.5	100	254	1	110	2	2	90	2	2	0	2	157.5	112.5	2.99994904671097	-0.172160160895588	0.283333333333333	0	0	0	152.714288779418	152.81427022547	0.0999814460519701	0.283351387479343
30468.75	100	255	1	111	2	2	90	2	2	0	2	157.5	112.5	0.866060208647672	-2.37691862886652	0.116666666666667	0	0	0	152.93095994438	153.030946754268	0.0999868098879233	0.116689718910493
30518.75	100	256	1	112	2	2	90	2	2	0	2	67.5	22.5	0.438408302577777	2.87975112420455	0.1	0	0	0	153.130964284181	153.230938659748	0.099974375567399	0.100017529912293
30606.25	100	257	1	113	2	2	90	2	2	0	2	67.5	112.5	-1.5682178468014	-2.03670412932159	0.25	0	0	0	153.480980290216	153.580958079197	0.0999777889810503	0.250041630468331
30656.25	100	258	1	114	2	2	90	2	2	0	1	22.5	67.5	-0.362030257827578	1.91599124611693	0.1	0	0	0	153.680983654805	153.78097022092	0.0999865661142394	0.100025575608015
30739.5	100	259	1	115	2	2	90	2	2	3	2	157.5	112.5	-0.223514820659935	2.38105383465813	0.233333333333333	0	0	0	154.014330397709	154.114315500949	0.0999851032393053	0.233360176789574
30814.5	100	260	1	116	2	2	90	2	2	3	1	112.5	157.5	-0.483874342197009	-0.289513130551009	0.2	0	0	0	154.314331543632	154.414330300177	0.0999987565446645	0.200016042683274
30877	100	261	1	117	2	2	90	2	2	3	1	22.5	157.5	-1.44880722674289	2.89142320583401	0.15	0	0	0	154.564338065451	154.664318292518	0.0999802270671353	0.150007765274495
30968.75	100	262	1	118	2	2	90	2	2	1	-1	90	135	-1.76327873834837	-2.74650125531197	0.266666666666667	0	0	0	154.931015045266	155.030973573332	0.099958528066054	0.266696752747521
31068.75	100	263	1	119	2	2	90	2	2	3	1	112.5	67.5	1.57502861351599	-2.21302837081979	0.3	0	0	0	155.331027625827	155.431007121457	0.0999794956296682	0.300054052495398
31118.75	100	264	1	120	2	2	90	2	2	3	1	22.5	67.5	2.84286852834414	-0.102083568731869	0.1	0	0	0	155.531030990416	155.631014143233	0.0999831528170034	0.100023868959397
31177	100	265	1	121	2	2	90	2	2	3	2	157.5	22.5	2.01853859745245	-2.6721650910087	0.133333333333333	0	0	0	155.76437093108	155.864356278093	0.0999853470129892	0.133356787846424
31247.75	100	266	1	122	2	2	90	2	2	3	2	67.5	22.5	0.763663687134475	1.93397343593514	0.183333333333333	1	1.10864887782373	1	156.047697937465	156.147683284595	0.0999853471294045	0.183341659372672
31310.25	100	267	1	123	2	2	90	2	2	0	1	112.5	157.5	-2.96625537135618	0.166992810661284	0.15	0	0	0	156.297708604136	156.397695414023	0.0999868098879233	0.150025319540873
31389.5	100	268	1	124	2	2	90	2	2	0	2	157.5	112.5	-1.24251704489123	1.87792019170793	0.216666666666667	0	0	0	156.614401443745	156.714387034648	0.0999855909030885	0.216706029721536
31485.25	100	269	1	125	2	2	90	2	2	0	1	112.5	67.5	2.1362540037455	-1.34156797523367	0.283333333333333	0	0	0	156.997751100222	157.097728889086	0.0999777888646349	0.283364065573551
31552	100	270	1	126	2	2	90	2	2	0	1	22.5	67.5	2.9701671130219	-2.97057844078602	0.166666666666667	0	0	0	157.264416889171	157.36440199241	0.0999851032393053	0.166688000084832
31639.5	100	271	1	127	2	2	90	2	2	0	2	157.5	112.5	0.30065758840583	2.45247718371244	0.25	0	0	0	157.61442680005	157.714411903173	0.09998510312289	0.25002480763942
31739.5	100	272	1	128	2	2	90	2	2	0	1	112.5	157.5	0.433033781776579	-1.83218846576778	0.3	0	0	0	158.014428409166	158.114421558101	0.0999931489350274	0.300016505992971
31835.25	100	273	1	129	2	2	90	2	2	0	2	67.5	112.5	1.17103213586005	-0.52150623733687	0.283333333333333	0	0	0	158.397783916909	158.497766338289	0.0999824213795364	0.283362358808517
31910.25	100	274	1	130	2	2	90	2	2	0	1	112.5	67.5	-1.58884361140389	-2.3520655414824	0.2	0	0	0	158.697792133316	158.79777211661	0.0999799832934514	0.200025795027614
32006.25	100	275	1	131	2	2	90	2	2	0	2	157.5	22.5	1.3328275604063	0.545704925614579	0.283333333333333	0	0	0	159.081137157395	159.181114214822	0.0999770574271679	0.283365040784702
32077	100	276	1	132	2	2	90	2	2	0	2	157.5	112.5	-0.84797442469357	-0.22660278386223	0.183333333333333	0	0	0	159.364476841874	159.464459994691	0.0999831528170034	0.183362627052702
32156.25	100	277	1	133	2	2	90	2	2	0	1	22.5	67.5	2.18064032369119	-1.89709798742371	0.216666666666667	0	0	0	159.681152371108	159.781132354285	0.099979983177036	0.216692376416177
32214.5	100	278	1	134	2	2	90	2	2	0	2	157.5	112.5	-0.24049437389017	-2.8956789942969	0.133333333333333	0	0	0	159.91449084878	160.014472294832	0.0999814460519701	0.133358494495042
32306.25	100	279	1	135	2	2	90	2	2	0	1	22.5	157.5	1.02664844010401	-1.01983706049949	0.266666666666667	0	0	0	160.281168560032	160.381148543209	0.099979983177036	0.266696265200153
32385.25	100	280	1	136	2	2	90	2	2	0	1	112.5	67.5	0.352454923810837	1.7814437530803	0.216666666666667	0	0	0	160.597846527235	160.69782846095	0.0999819337157533	0.216697984025814
32443.75	100	281	1	137	2	2	90	2	2	0	1	22.5	157.5	0.217972835116826	-2.17420827775323	0.133333333333333	0	0	0	160.831167206867	160.931165719638	0.0999985127709806	0.133338745916262
32506.25	100	282	1	138	2	2	90	2	2	0	2	157.5	112.5	-0.245848963932743	-1.70664459177713	0.15	0	0	0	161.081188601209	161.181157125393	0.099968524184078	0.150022881571203
32577	100	283	1	139	2	2	90	2	2	0	1	112.5	67.5	2.8412847804637	0.745385989363188	0.183333333333333	0	0	0	161.364528529579	161.464510950842	0.0999824212631211	0.183371404185891
32639.5	100	284	1	140	2	2	90	2	2	3	2	67.5	112.5	1.60096962598013	0.848696700288794	0.15	0	0	0	161.614535782952	161.714518935652	0.0999831527005881	0.150024832109921
32722.75	100	285	1	141	2	2	90	2	2	3	1	22.5	67.5	-0.503782870184611	1.91240453704353	0.233333333333333	0	0	0	161.947879356216	162.047862265143	0.0999829089269042	0.233360420563258
32777	100	286	1	142	2	2	90	2	2	3	2	157.5	22.5	0.0337829066668909	0.911330791245981	0.116666666666667	0	0	0	162.164559054538	162.264536355855	0.0999773013172671	0.116696789395064
32827	100	287	1	143	2	2	90	2	2	3	1	112.5	67.5	2.49974154761025	2.19794060900213	0.1	0	0	0	162.36456534476	162.464563857531	0.0999985127709806	0.100028988905251
34006.25	100	288	2	0	1	1	90	2	1	3	2	67.5	22.5	-1.4902382963493	1.16447042523175	0.2	0	0	0	167.081355366972	167.181329986313	0.0999746193410829	-1
34081.25	100	289	2	1	1	1	90	2	1	3	1	112.5	157.5	-1.22508657508554	-2.89577970918828	0.2	0	0	0	167.381373579497	167.481334789423	0.0999612099258229	0.200043593184091
34156.25	100	290	2	2	1	1	90	2	1	3	1	22.5	157.5	0.723835238574343	-3.10665427863983	0.2	0	0	0	167.681361559662	167.781340567744	0.0999790080823004	0.200026770238765
34231.25	100	291	2	3	1	1	90	2	1	3	2	67.5	112.5	1.74584298854226	0.652475337191269	0.2	0	0	0	167.981368313194	168.081351222238	0.0999829090433195	0.200027745449916
34306.25	100	292	2	4	1	1	90	2	1	0	1	22.5	157.5	0.49046055430916	-0.521227042611585	0.2	0	0	0	168.281350441976	168.381331156706	0.0999807147309184	0.199999219737947
34381.25	100	293	2	5	1	1	90	2	1	0	2	157.5	112.5	-1.08290381698917	0.813469848209581	0.2	0	0	0	168.58138864697	168.681371312123	0.0999826651532203	0.200057490263134
34456.25	100	294	2	6	1	1	90	2	1	0	1	112.5	67.5	-2.08888205646281	-2.26019256260474	0.2	0	0	0	168.881393206189	168.981378553202	0.0999853470129892	0.200021894066595
34531.25	100	295	2	7	1	1	90	2	1	0	1	112.5	67.5	-2.68798334068718	2.42775131030239	0.2	0	0	0	169.181403373019	169.281385306735	0.0999819337157533	0.200024819816463
34606.25	100	296	2	8	1	1	90	2	1	0	2	157.5	112.5	3.10527717015433	-0.672661615857689	0.2	0	0	0	169.481397936121	169.581378650735	0.0999807146145031	0.200012629386038
34681.25	100	297	2	9	1	1	90	2	1	0	1	112.5	67.5	-1.84956854769142	1.83299848045223	0.2	0	0	0	169.781418586732	169.881403933861	0.0999853471294045	0.200039935996756
34756.25	100	298	2	10	1	1	90	2	1	0	2	157.5	112.5	0.807641575439926	2.3831844103907	0.2	0	0	0	170.0814307041	170.181408736855	0.0999780327547342	0.200026770238765
34831.25	100	299	2	11	1	1	90	2	1	0	1	112.5	157.5	-0.943440875157584	-1.40975127985452	0.2	0	0	0	170.381440383382	170.481420366559	0.099979983177036	0.20003164652735
34906.25	100	300	2	12	1	1	90	2	1	0	2	157.5	112.5	-2.54184385367393	-1.90628545161744	0.2	0	0	0	170.681446893024	170.781415417208	0.099968524184078	0.200026526465081
34981.25	100	301	2	13	1	1	90	2	1	0	2	157.5	22.5	1.08411514895609	-0.639202149233342	0.2	0	0	0	170.981436579954	171.081435092725	0.0999985127709806	0.200021162745543
35056.25	100	302	2	14	1	1	90	2	1	0	1	22.5	157.5	0.526321647691886	0.180500213749197	0.2	0	0	0	171.281463325839	171.381445015781	0.0999816899420694	0.200028233113699
35131.25	100	303	2	15	1	1	90	2	1	0	2	157.5	22.5	-2.89006957763318	3.00817731570718	0.2	0	0	0	171.581468616496	171.681452013087	0.0999833965906873	0.200023600715213
35206.25	100	304	2	16	1	1	90	2	1	0	2	67.5	22.5	0.965886273639327	-0.380877853661774	0.2	0	0	0	171.88147756434	171.98148339137	0.100005827029236	0.20002555125393
35281.25	100	305	2	17	1	1	90	2	1	0	1	22.5	157.5	2.62129195704601	-2.07169938759038	0.2	0	0	0	172.181491388357	172.281452842057	0.0999614536995068	0.200007996987551
35356.25	100	306	2	18	1	1	90	2	1	0	2	67.5	22.5	-0.829217597961141	1.90366809638187	0.2	0	0	0	172.481494972366	172.581458620378	0.0999636480119079	0.200042130309157
35431.25	100	307	2	19	1	1	90	2	1	0	2	67.5	22.5	-0.319442301629814	2.36277788609019	0.2	0	0	0	172.781504163984	172.881485610036	0.0999814460519701	0.200045543606393
35506.25	100	308	2	20	1	1	90	2	1	0	1	22.5	67.5	2.87439143032308	2.66692881808561	0.2	0	0	0	173.081508966978	173.181494070217	0.0999851032393053	0.200023356941529
35581.25	100	309	2	21	1	1	90	2	1	0	1	22.5	67.5	1.39917020658133	2.41612109001703	0.2	0	0	0	173.381522303447	173.481504480937	0.0999821774894372	0.200028233230114
35656.25	100	310	2	22	1	1	90	2	1	0	1	22.5	67.5	2.26516332933743	-1.2224288352228	0.2	0	0	0	173.68150540744	173.781484902953	0.0999794955132529	0.20000092650298
35731.25	100	311	2	23	1	1	90	2	1	0	2	157.5	22.5	-0.199198086444353	-0.719136593759768	0.2	0	0	0	173.981512892293	174.081496288883	0.0999833965906873	0.200027989340015
35806.25	100	312	2	24	1	1	90	2	1	0	2	157.5	112.5	1.83331085508486	-1.56893879226674	0.2	0	0	0	174.281541101169	174.381499872892	0.0999587717233226	0.200044812285341
35881.25	100	313	2	25	1	1	90	2	1	0	1	22.5	157.5	-1.1004636649121	1.86834068243271	0.2	0	0	0	174.581530544208	174.681510527385	0.099979983177036	0.200030671316199
35956.25	100	314	2	26	1	1	90	2	1	0	1	22.5	157.5	-2.07341351044284	2.33449558957123	0.2	0	0	0	174.881538029062	174.981518500019	0.0999804709572345	0.200027501676232
36031.25	100	315	2	27	1	1	90	2	1	0	1	22.5	67.5	-1.30286106402926	-0.847254692094161	0.2	0	0	0	175.181545026484	175.2815269602	0.0999819337157533	0.200026526465081
36106.25	100	316	2	28	1	1	90	2	1	0	1	112.5	157.5	-1.56733784663882	0.64476074178413	0.2	0	0	0	175.481550560915	175.581533469842	0.0999829089269042	0.200023600715213
36181.25	100	317	2	29	1	1	90	2	1	0	1	112.5	67.5	-1.47477440094527	-2.9346835053004	0.2	0	0	0	175.781558289658	175.881540954811	0.0999826651532203	0.200024819816463
36256.25	100	318	2	30	1	1	90	2	1	0	1	112.5	157.5	2.78660737261968	-2.87198842839737	0.2	0	0	0	176.081582597457	176.181559411227	0.0999768137698993	0.200041642645374
36331.25	100	319	2	31	1	1	90	2	1	3	1	22.5	157.5	-2.63916055740612	0.602623641024127	0.2	0	0	0	176.381576672895	176.481558119063	0.0999814461683854	0.200017261668108
36406.25	100	320	2	32	1	1	90	2	1	3	2	157.5	112.5	1.60852063148112	-1.3957726372982	0.2	0	0	0	176.681585133076	176.781572186854	0.0999870537780225	0.200027014012448
36481.25	100	321	2	33	1	1	90	2	1	3	2	67.5	112.5	-1.31758785224406	-0.81447647420513	0.2	0	0	0	176.981592618045	177.081573088886	0.0999804708408192	0.20002043119166
36556.25	100	322	2	34	1	1	90	2	1	1	-1	90	45	-0.636247071519892	-2.32410522271198	0.2	0	0	0	177.281599615468	177.381588375778	0.0999887603102252	0.200026526581496
36631.25	100	323	2	35	1	1	90	2	1	3	1	22.5	67.5	3.11844090613467	2.98112695126294	0.2	0	0	0	177.581621972728	177.681589765474	0.0999677927466109	0.200033596949652
36706.25	100	324	2	36	1	1	90	2	1	3	2	67.5	22.5	0.549462258402067	1.90720171447082	0.2	1	0.492200896260329	1	177.881614097743	177.981597738108	0.0999836403643712	0.200024332269095
36781.25	100	325	2	37	1	1	90	2	1	3	2	157.5	22.5	0.898581864549969	2.25236525493947	0.2	0	0	0	178.181620851276	178.281598152593	0.0999773013172671	0.200023113167845
36856.25	100	326	2	38	1	1	90	2	1	3	1	112.5	157.5	2.03370746542326	-1.00901570230701	0.2	0	0	0	178.481629799004	178.581602468039	0.0999726690351963	0.200031646410935
36931.25	100	327	2	39	1	1	90	2	1	0	1	22.5	67.5	-2.74201342613121	-2.35175955267664	0.2	0	0	0	178.781664834474	178.881651888252	0.0999870537780225	0.200062366435304
37006.25	100	328	2	40	1	1	90	2	1	0	1	112.5	67.5	-0.999649519029108	-2.2768341817226	0.2	0	0	0	179.081675488967	179.181657910347	0.0999824213795364	0.200023600715213
37081.25	100	329	2	41	1	1	90	2	1	0	2	157.5	22.5	-2.49597130722758	2.61839185316865	0.2	0	0	0	179.381681998726	179.481664663879	0.0999826651532203	0.200024088378996
37156.25	100	330	2	42	1	1	90	2	1	0	2	157.5	112.5	2.2669793859614	-0.120772267833119	0.2	0	0	0	179.681687776931	179.781669954536	0.0999821776058525	0.200023113051429
37231.25	100	331	2	43	1	1	90	2	1	0	2	157.5	22.5	1.12019617740213	-1.78881257926883	0.2	0	0	0	179.981699894299	180.081664517522	0.0999646232230589	0.200029939762317
37306.25	100	332	2	44	1	1	90	2	1	0	1	112.5	67.5	2.18857077755917	2.59345139319951	0.2	0	0	0	180.281704697409	180.381689312984	0.0999846155755222	0.200040179886855
37381.25	100	333	2	45	1	1	90	2	1	0	1	22.5	67.5	0.398352886174539	2.42810525600857	0.2	0	0	0	180.581716327113	180.681684607407	0.0999682802939788	0.200027014128864
37456.25	100	334	2	46	1	1	90	2	1	0	2	157.5	22.5	-2.71544835556193	-1.91186394878419	0.2	0	0	0	180.881721130107	180.981702820049	0.0999816899420694	0.20003652269952
37531.25	100	335	2	47	1	1	90	2	1	0	1	112.5	157.5	-0.113927690103042	1.90315564857764	0.2	0	0	0	181.181732759811	181.281698358362	0.0999655985506251	0.200029939762317
37606.25	100	336	2	48	1	1	90	2	1	0	2	67.5	22.5	2.18511335996413	-2.02770298671054	0.2	0	0	0	181.481736831483	181.581721934723	0.0999851032393053	0.200038473121822
37681.25	100	337	2	49	1	1	90	2	1	0	2	67.5	112.5	2.78815110238487	-2.46487494868175	0.2	0	0	0	181.78174772975	181.881729175802	0.0999814460519701	0.200025795027614
37756.25	100	338	2	50	1	1	90	2	1	0	1	22.5	157.5	2.2379239961819	-1.85599052990358	0.2	0	0	0	182.081754727056	182.181736416998	0.0999816899420694	0.20002555125393
37831.25	100	339	2	51	1	1	90	2	1	0	1	112.5	157.5	-2.86517812123075	1.05021229250283	0.2	0	0	0	182.381766844424	182.481745364843	0.0999785204185173	0.2000304274261
37906.25	100	340	2	52	1	1	90	2	1	0	2	157.5	112.5	2.57482062637462	-0.275491212408367	0.2	0	0	0	182.681769940769	182.781755287899	0.0999853471294045	0.200024575926363
37981.25	100	341	2	53	1	1	90	2	1	0	1	22.5	157.5	-0.0466060220079574	-0.765562497371299	0.2	0	0	0	182.981777181965	183.081763991853	0.0999868098879233	0.200021894066595
38056.25	100	342	2	54	1	1	90	2	1	3	1	112.5	157.5	0.904705589503903	1.6243000767244	0.2	0	0	0	183.28178588592	183.381772939698	0.0999870537780225	0.200021894066595
38131.25	100	343	2	55	1	1	90	2	1	3	2	67.5	112.5	-2.56196604691308	-1.89629867561167	0.2	0	0	0	183.581794589991	183.681776036043	0.0999814460519701	0.200021650292911
38206.25	100	344	2	56	1	1	90	2	1	3	1	22.5	67.5	3.03191919534939	1.71136645439371	0.2	0	0	0	183.881807926344	183.98178693431	0.0999790079658851	0.200031890301034
38281.25	100	345	2	57	1	1	90	2	1	1	-1	90	135	1.43178497460508	1.43018601589757	0.2	1	-0.095679669175297	1	184.181793956086	184.281794663053	0.100000706966966	0.200007021776401
38356.25	100	346	2	58	1	1	90	2	1	3	2	157.5	112.5	0.381148128914176	-1.26607152200685	0.2	0	0	0	184.48181972676	184.581766551826	0.0999468250665814	0.200025063706562
38431.25	100	347	2	59	1	1	90	2	1	3	1	112.5	67.5	2.07778703181328	-2.95251453456776	0.2	0	0	0	184.781835745089	184.881810120656	0.099974375567399	0.200069193262607
38506.25	100	348	2	60	1	1	90	2	1	3	1	22.5	157.5	-0.779618014116731	-1.29546654005543	0.2	0	0	0	185.081843473832	185.181802489446	0.0999590156134218	0.200033353175968
38581.25	100	349	2	61	1	1	90	2	1	3	2	67.5	22.5	-0.971842793402013	-1.13482660388571	0.2	0	0	0	185.38184315688	185.481830454315	0.0999872974352911	0.200040667434223
38656.25	100	350	2	62	1	1	90	2	1	0	2	67.5	112.5	-1.31794349451593	-2.79853032494084	0.2	0	0	0	185.681850885623	185.78183379455	0.0999829089269042	0.200020431308076
38731.25	100	351	2	63	1	1	90	2	1	0	2	67.5	22.5	-2.28771949689465	-3.00677247471982	0.2	0	0	0	185.981863002991	186.081845424254	0.0999824212631211	0.200029208441265
38806.25	100	352	2	64	1	1	90	2	1	0	1	112.5	67.5	1.57738871136699	1.40944760093293	0.2	0	0	0	186.281865855563	186.381853152998	0.0999872974352911	0.200020431308076
38881.25	100	353	2	65	1	1	90	2	1	0	1	22.5	67.5	0.473084841216521	-3.13618988219721	0.2	0	0	0	186.581877729041	186.68186015042	0.0999824213795364	0.200024576042779
38956.25	100	354	2	66	1	1	90	2	1	0	1	22.5	157.5	0.979951413769709	3.06588920809783	0.2	0	0	0	186.88188521401	186.981867147726	0.0999819337157533	0.200025063590147
39031.25	100	355	2	67	1	1	90	2	1	0	1	112.5	157.5	1.82665586732037	-3.01961513437881	0.2	0	0	0	187.18189538084	187.281877070782	0.0999816899420694	0.200028233113699
39106.25	100	356	2	68	1	1	90	2	1	0	2	157.5	112.5	-0.398152109318446	-1.08179650517809	0.2	0	0	0	187.481884336332	187.581869195681	0.0999848593492061	0.200007265550084
39181.25	100	357	2	69	1	1	90	2	1	0	1	22.5	157.5	-0.16244860451148	0.448007500351754	0.2	0	0	0	187.781891577411	187.88187277969	0.0999812022782862	0.200022381730378
39256.25	100	358	2	70	1	1	90	2	1	0	1	22.5	67.5	0.0732571628627783	2.41155320665817	0.2	0	0	0	188.081901744241	188.181879045675	0.0999773014336824	0.200028964551166
39331.25	100	359	2	71	1	1	90	2	1	0	1	22.5	67.5	-1.5407918614617	-1.87839407055221	0.2	0	0	0	188.381907522562	188.481882629567	0.099975107004866	0.200028476887383
39406.25	100	360	2	72	1	1	90	2	1	0	2	157.5	22.5	2.49957913300478	-1.66954905942251	0.2	0	0	0	188.681908668485	188.781891821185	0.0999831527005881	0.200026038917713
39481.25	100	361	2	73	1	1	90	2	1	0	1	112.5	67.5	1.61269008166443	3.0457236771367	0.2	0	0	0	188.981930050533	189.081924906233	0.0999948557000607	0.200038229348138
39556.25	100	362	2	74	1	1	90	2	1	0	2	157.5	22.5	-1.40524614519693	1.16289789748055	0.2	0	0	0	189.281952651683	189.381930440664	0.0999777889810503	0.200027745449916
39631.25	100	363	2	75	1	1	90	2	1	0	2	157.5	112.5	-1.6619739821833	-2.39872880294033	0.2	0	0	0	189.581958430004	189.681923784665	0.0999653546605259	0.200027989340015
39706.25	100	364	2	76	1	1	90	2	1	0	2	67.5	112.5	2.237940198277	1.6091223629303	0.2	0	0	0	189.881969084498	189.981948336354	0.0999792518559843	0.200045299832709
39781.25	100	365	2	77	1	1	90	2	1	0	2	67.5	22.5	-1.50905417826115	-2.35151689653947	0.2	0	0	0	190.181972668506	190.281959478394	0.0999868098879233	0.20002433215268
39856.25	100	366	2	78	1	1	90	2	1	0	1	112.5	157.5	-0.394525576434164	-0.39049673479678	0.2	0	0	0	190.481985761086	190.581968913786	0.0999831527005881	0.200026282691397
39931.25	100	367	2	79	1	1	90	2	1	0	1	112.5	67.5	-1.72709671587841	1.18650477474441	0.2	0	0	0	190.781995684141	190.881973229232	0.099977545090951	0.20002677035518
40006.25	100	368	2	80	1	1	90	2	1	0	2	67.5	112.5	-0.0890556380297149	-1.3197906504925	0.2	0	0	0	191.081998780486	191.181965598022	0.09996681753546	0.20002555125393
40081.25	100	369	2	81	1	1	90	2	1	0	1	22.5	67.5	-2.25412564793267	2.24014381993874	0.2	0	0	0	191.382006996893	191.481992587796	0.0999855909030885	0.20004139887169
40156.25	100	370	2	82	1	1	90	2	1	0	1	112.5	157.5	-1.17767365709193	-2.90402384809671	0.2	0	0	0	191.68200009712	191.781999341329	0.0999992442084476	0.200007509323768
40231.25	100	371	2	83	1	1	90	2	1	0	2	67.5	22.5	-2.54726070161044	-2.27056013779247	0.2	0	0	0	191.982015383895	192.082000487135	0.0999851032393053	0.200016042566858
40306.25	100	372	2	84	1	1	90	2	1	0	1	112.5	157.5	0.818597817812334	0.976506919213495	0.2	0	0	0	192.282021162217	192.382007240667	0.0999860784504563	0.20002067508176
40381.25	100	373	2	85	1	1	90	2	1	0	2	67.5	112.5	0.769525385594306	3.0572786572574	0.2	0	0	0	192.582030110061	192.682016432285	0.0999863222241402	0.200022869394161
40456.25	100	374	2	86	1	1	90	2	1	0	2	157.5	22.5	-1.42937273303916	0.912054777116388	0.2	0	0	0	192.882040276891	192.982017578208	0.0999773013172671	0.200023844605312
40531.5	100	375	2	87	1	1	90	2	1	0	2	157.5	112.5	2.43383270508795	0.914553924313277	0.2	0	0	0	193.182051175158	193.282028476475	0.0999773013172671	0.200033596949652
40606.5	100	376	2	88	1	1	90	2	1	0	2	157.5	112.5	2.91997487570347	1.04449412426421	0.2	0	0	0	193.482054759166	193.582058148109	0.100003388943151	0.200026282691397
40681.5	100	377	2	89	1	1	90	2	1	0	2	67.5	22.5	2.80563155222762	-0.748436736358782	0.2	0	0	0	193.782061512698	193.882044665515	0.0999831528170034	0.200003364589065
40756.5	100	378	2	90	1	1	90	2	1	0	1	112.5	67.5	-1.44725516382779	-0.802669540052081	0.2	0	0	0	194.082074361504	194.182056051446	0.0999816899420694	0.200029695988633
40831.5	100	379	2	91	1	1	90	2	1	0	1	112.5	157.5	1.62687072518819	1.11648815638318	0.2	0	0	0	194.382083065459	194.482059635455	0.0999765699962154	0.200027014012448
40906.5	100	380	2	92	1	1	90	2	1	0	2	67.5	112.5	1.41113403279567	-2.57845430499653	0.2	0	0	0	194.682086649467	194.782072727918	0.0999860784504563	0.200027014012448
40981.5	100	381	2	93	1	1	90	2	1	0	1	112.5	157.5	-2.37384173911362	3.02648650485478	0.2	1	0	0	194.982099254499	195.082079237676	0.099979983177036	0.200026526581496
41056.5	100	382	2	94	1	1	90	2	1	0	2	67.5	22.5	-0.618722756620845	-0.0386333468888429	0.2	0	0	0	195.282102838508	195.382086478872	0.0999836403643712	0.200023600831628
41131.5	100	383	2	95	1	1	90	2	1	0	2	157.5	112.5	2.46760824388423	-1.06966617619213	0.2	0	0	0	195.582111542462	195.682092988514	0.0999814460519701	0.200025063590147
41206.5	100	384	2	96	1	1	90	2	1	0	1	22.5	157.5	0.730840337265492	-1.83948050183259	0.2	0	0	0	195.882120246417	195.982100717374	0.0999804709572345	0.200027257902548
41281.5	100	385	2	97	1	1	90	2	1	0	1	22.5	67.5	-2.80450202751747	1.27058134195797	0.2	0	0	0	196.18213090091	196.282112590852	0.0999816899420694	0.200030183536001
41356.5	100	386	2	98	1	1	90	2	1	0	2	67.5	112.5	-2.60767453339009	1.88223570728691	0.2	0	0	0	196.482134728809	196.582119344384	0.0999846155755222	0.200022137956694
41431.5	100	387	2	99	1	1	90	2	1	3	1	112.5	157.5	-0.0103048674416031	-1.04941166312923	0.2	0	0	0	196.782147821388	196.88212634169	0.099978520302102	0.200028477003798
41506.5	100	388	2	100	1	1	90	2	1	3	1	22.5	67.5	2.5920604235761	-0.886372982847795	0.2	0	0	0	197.082152868155	197.182135533309	0.0999826651532203	0.200026526465081
41581.5	100	389	2	101	1	1	90	2	1	3	1	112.5	67.5	1.88129237765936	-0.139461675646989	0.2	0	0	0	197.382160109351	197.482142530615	0.0999824212631211	0.200024576042779
41656.5	100	390	2	102	1	1	90	2	1	2	-1	135	90	2.91332066730268	-2.16777060409851	0.2	0	0	0	197.682169788633	197.782153185108	0.099983396474272	0.200027258018963
41731.5	100	391	2	103	1	1	90	2	1	3	1	22.5	157.5	-1.33396367660463	2.63979816569298	0.2	0	0	0	197.982177273487	198.082161157741	0.0999838842544705	0.200024088378996
41806.5	100	392	2	104	1	1	90	2	1	3	2	67.5	112.5	-1.77177878298509	-2.84307465483742	0.2	0	0	0	198.282183051808	198.38216742361	0.0999843718018383	0.200021894066595
41881.5	100	393	2	105	1	1	90	2	1	3	2	157.5	22.5	1.77590762257209	1.30259518170854	0.2	0	0	0	198.582195656723	198.682172714267	0.0999770575435832	0.200028233113699
41956.5	100	394	2	106	1	1	90	2	1	3	2	157.5	112.5	-0.337971445919915	2.09024294306534	0.2	0	0	0	198.882201678935	198.98219190212	0.0999902231851593	0.200028964667581
42031.5	100	395	2	107	1	1	90	2	1	0	2	67.5	22.5	2.64745325146004	1.67946828131886	0.2	0	0	0	199.182209651452	199.282191097504	0.0999814460519701	0.200017749331892
42106.5	100	396	2	108	1	1	90	2	1	0	1	112.5	67.5	1.12266954514678	-2.73941651907081	0.2	0	0	0	199.482220062171	199.582202483434	0.0999824212631211	0.200028964667581
42181.5	100	397	2	109	1	1	90	2	1	0	2	157.5	22.5	-1.18194876589421	-1.81219193439437	0.2	0	0	0	199.782227790914	199.882207774092	0.099979983177036	0.200025307480246
42256.5	100	398	2	110	1	1	90	2	1	0	1	22.5	67.5	2.87373129367372	-3.12812032749028	0.2	0	0	0	200.08224039583	200.182217453374	0.0999770575435832	0.200032621738501
42331.5	100	399	2	111	1	1	90	2	1	0	2	157.5	22.5	-2.90457413831002	1.85814159400989	0.2	0	0	0	200.382242029416	200.482224450679	0.0999824212631211	0.200024576042779
42406.5	100	400	2	112	1	1	90	2	1	0	1	22.5	157.5	2.86666480004266	0.971850503312848	0.2	0	0	0	200.682251221035	200.78223291086	0.099981689825654	0.20002677035518
42481.5	100	401	2	113	1	1	90	2	1	0	2	67.5	22.5	2.66348985331139	2.91706460599922	0.2	0	0	0	200.982258706004	201.082243809127	0.09998510312289	0.200025795144029
42556.5	100	402	2	114	1	1	90	2	1	0	2	157.5	112.5	0.669503810601409	-2.46965062040721	0.2	0	0	0	201.282271554694	201.382249343675	0.0999777889810503	0.200027745566331
42631.5	100	403	2	115	1	1	90	2	1	0	1	112.5	157.5	-2.29711107733903	2.00510754878778	0.2	0	0	0	201.58227318828	201.682254634332	0.0999814460519701	0.200023844605312
42706.5	100	404	2	116	1	1	90	2	1	0	1	22.5	67.5	-1.85597254419839	-0.965252981961068	0.2	0	0	0	201.882281160797	201.982269921224	0.0999887604266405	0.200026526465081
42781.5	100	405	2	117	1	1	90	2	1	0	2	67.5	112.5	-2.81423772577708	1.01761690772105	0.2	0	0	0	202.182293278165	202.282279600389	0.0999863222241402	0.200023356941529
42856.5	100	406	2	118	1	1	90	2	1	0	2	67.5	22.5	0.041669246923941	2.94123130093455	0.2	0	0	0	202.482301738346	202.582283915835	0.0999821774894372	0.200022137956694
42931.5	100	407	2	119	1	1	90	2	1	0	2	67.5	112.5	-2.74154148878629	-1.47788596841234	0.2	0	0	0	202.782306297566	202.88228725607	0.0999809585046023	0.200022381730378
43006.5	100	408	2	120	1	1	90	2	1	0	2	157.5	22.5	2.04463971936129	1.32073381312213	0.2	0	0	0	203.082315489184	203.182299129548	0.0999836403643712	0.200028233113699
43081.5	100	409	2	121	1	1	90	2	1	0	1	112.5	67.5	0.0689666800515911	-2.45587161642707	0.2	0	0	0	203.382323949365	203.482309296494	0.0999853471294045	0.200024819816463
43156.5	100	410	2	122	1	1	90	2	1	0	1	112.5	157.5	2.40332466223671	-2.94198994914844	0.2	0	0	0	203.682333140983	203.782313611824	0.0999804708408192	0.200023844488896
43231.5	100	411	2	123	1	1	90	2	1	0	1	22.5	157.5	-1.06259955503032	-0.625774133191103	0.2	0	0	0	203.982346721226	204.08232085302	0.0999741317937151	0.200033109402284
43306.5	100	412	2	124	1	1	90	2	1	0	1	112.5	67.5	-0.189016378716518	-2.26631941791606	0.2	0	0	0	204.282348598586	204.382330532302	0.0999819337157533	0.200027745566331
43381.5	100	413	2	125	1	1	90	2	1	0	2	67.5	112.5	0.135696464573271	1.57205222173358	0.2	0	0	0	204.582352670142	204.682340699132	0.0999880289891735	0.200022137840278
43456.5	100	414	2	126	1	1	90	2	1	0	1	22.5	157.5	-3.00603240785692	0.383530358226439	0.2	0	0	0	204.88236746937	204.982352328836	0.0999848594656214	0.200026770238765
43531.5	100	415	2	127	1	1	90	2	1	0	2	67.5	112.5	-2.47940019706705	-1.65854901726094	0.2	0	0	0	205.182372760028	205.282360545243	0.0999877852154896	0.20002043119166
43606.5	100	416	2	128	1	1	90	2	1	0	2	67.5	22.5	0.763294014782719	-2.44111881728144	0.2	0	0	0	205.48237975745	205.582367786323	0.0999880288727582	0.200019212206826
43681.5	100	417	2	129	1	1	90	2	1	0	2	67.5	112.5	-1.92498935688637	-0.226535229770371	0.2	0	0	0	205.782393093803	205.882370638894	0.099977545090951	0.200025307480246
43756.5	100	418	2	130	1	1	90	2	1	0	2	157.5	22.5	2.23389622400775	2.11966478388387	0.2	0	0	0	206.082398140687	206.182379099191	0.0999809585046023	0.200027501792647
43831.5	100	419	2	131	1	1	90	2	1	0	2	67.5	112.5	1.75769578802323	1.06668291330278	0.2	0	0	0	206.382403919008	206.482394142193	0.0999902231851593	0.200024819816463
43906.5	100	420	2	132	1	1	90	2	1	3	1	112.5	67.5	-1.61065237113584	2.25151544947011	0.2	0	0	0	206.682410916314	206.78239675099	0.0999858346767724	0.200016774120741
43981.5	100	421	2	133	1	1	90	2	1	3	2	157.5	112.5	0.257901565012975	-0.288859051357754	0.2	0	0	0	206.982423765003	207.082407405484	0.0999836404807866	0.200027014012448
44056.5	100	422	2	134	1	1	90	2	1	3	2	157.5	22.5	1.30384537844951	2.09941517771366	0.2	0	0	0	207.282430030988	207.382409526617	0.0999794956296682	0.200022625504062
44131.5	100	423	2	135	1	1	90	2	1	3	1	22.5	67.5	-2.13662686033044	-1.19079065165269	0.2	0	0	0	207.582439222606	207.682423838181	0.0999846155755222	0.200029695988633
45052.25	100	424	3	0	2	2	90	1	1	3	1	112.5	157.5	-1.89516594593719	2.65716900234233	0.233333333333333	0	0	0	211.265875602025	211.36585753574	0.0999819337157533	-1
45131.5	100	425	3	1	2	2	90	1	1	3	2	67.5	112.5	-1.97300079830275	-0.689703948579265	0.216666666666667	0	0	0	211.58257112361	211.68251185352	0.0999407299095765	0.21671358786989
45206.5	100	426	3	2	2	2	90	1	1	3	2	157.5	112.5	3.05050818746983	-1.24021346215745	0.2	0	0	0	211.882559103775	211.982542256475	0.0999831527005881	0.200047250255011
45273.25	100	427	3	3	2	2	90	1	1	3	1	22.5	67.5	-1.34779163318086	0.975515573758466	0.166666666666667	0	0	0	212.14923293842	212.249219748308	0.0999868098879233	0.166690681944601
45356.5	100	428	3	4	2	2	90	1	1	0	2	157.5	112.5	-1.40848803502123	2.14846606931615	0.233333333333333	0	0	0	212.482583338395	212.582560395938	0.0999770575435832	0.23336359008681
45452.25	100	429	3	5	2	2	90	1	1	0	1	112.5	157.5	-2.84068133758822	0.392007038624378	0.283333333333333	0	0	0	212.865922267199	212.965904688579	0.0999824213795364	0.28336187126115
45510.75	100	430	3	6	2	2	90	1	1	0	1	112.5	157.5	0.860320322598736	0.583358615329438	0.133333333333333	0	0	0	213.099261720199	213.199245604337	0.0999838841380551	0.133357031620108
45564.75	100	431	3	7	2	2	90	1	1	0	2	157.5	112.5	0.358102254875261	-1.50222788366285	0.116666666666667	0	0	0	213.315932397498	213.415916525526	0.0999841280281544	0.116686793160625
45648.25	100	432	3	8	2	2	90	1	1	0	2	67.5	112.5	2.56435674751881	0.148550354208426	0.233333333333333	0	0	0	213.649277677527	213.749252296868	0.0999746193410829	0.233361152000725
45748.25	100	433	3	9	2	2	90	1	1	0	1	112.5	67.5	0.74004433807303	2.22578203785488	0.3	0	0	0	214.049288795213	214.149270485155	0.0999816899420694	0.300036498345435
45819	100	434	3	10	2	2	90	1	1	0	1	22.5	157.5	-1.77904080928879	1.11085930503294	0.183333333333333	0	0	0	214.332629455021	214.432596272556	0.09996681753546	0.183358969865367
45902.25	100	435	3	11	2	2	90	1	1	0	1	112.5	157.5	-1.77346414148365	2.92141191408108	0.233333333333333	0	0	0	214.665972540737	214.76593716396	0.0999646232230589	0.233376268181019
46002.25	100	436	3	12	2	2	90	1	1	0	2	67.5	112.5	-0.402646267105275	1.51660342208985	0.3	0	0	0	215.065980976564	215.165950719849	0.0999697432853281	0.30004381260369
46073.25	100	437	3	13	2	2	90	1	1	0	1	112.5	67.5	2.57559377209742	2.79113667210346	0.183333333333333	0	0	0	215.349326024996	215.449305032962	0.0999790079658851	0.18337530514691
46135.75	100	438	3	14	2	2	90	1	1	0	2	157.5	22.5	-2.51024900066281	-2.6958700734545	0.15	0	0	0	215.599331815378	215.699318381492	0.0999865661142394	0.150026782415807
46214.75	100	439	3	15	2	2	90	1	1	0	1	112.5	157.5	-1.20032224986256	-2.00774093307508	0.216666666666667	0	0	0	215.915997104603	216.015986840241	0.0999897356377915	0.216678723110817
46285.75	100	440	3	16	2	2	90	1	1	0	2	157.5	22.5	-1.31403505366618	-1.34274478193681	0.183333333333333	0	0	0	216.199361657724	216.299331401009	0.0999697432853281	0.183374817483127
46344	100	441	3	17	2	2	90	1	1	0	2	157.5	22.5	0.751041034247262	-2.98119751212773	0.133333333333333	0	0	0	216.432685994427	216.532665733946	0.0999797395197675	0.133354593417607
46419	100	442	3	18	2	2	90	1	1	0	1	112.5	67.5	-1.05748840572445	0.024576010979819	0.2	0	0	0	216.732692260412	216.832659321721	0.0999670613091439	0.200026526465081
46498.25	100	443	3	19	2	2	90	1	1	0	2	67.5	22.5	2.73863090075129	-0.521911240182853	0.216666666666667	0	0	0	217.049367789528	217.149352405104	0.0999846155755222	0.216708467807621
46552.25	100	444	3	20	2	2	90	1	1	0	2	67.5	22.5	0.22026083542162	0.430646568375199	0.116666666666667	0	0	0	217.266044074437	217.366005528136	0.0999614536995068	0.116691669332795
46639.75	100	445	3	21	2	2	90	1	1	0	1	112.5	67.5	-1.7865466460939	-2.76330242143856	0.25	0	0	0	217.616050572018	217.716035187594	0.0999846155755222	0.250045043881983
46710.75	100	446	3	22	2	2	90	1	1	0	2	67.5	112.5	2.51659528875149	2.46319635873522	0.183333333333333	0	0	0	217.899394889013	217.99937779794	0.0999829089269042	0.183359701419249
46806.5	100	447	3	23	2	2	90	1	1	0	2	67.5	112.5	0.883882883185872	2.2419878187047	0.283333333333333	0	0	0	218.282733330154	218.38270380476	0.0999704746063799	0.283355532214046
46869	100	448	3	24	2	2	90	1	1	0	2	157.5	112.5	-2.43034368429918	0.791121768448708	0.15	0	0	0	218.532744240598	218.632726174314	0.0999819337157533	0.150040435837582
46952.25	100	449	3	25	2	2	90	1	1	0	1	22.5	67.5	1.21205470654346	1.20862186397021	0.233333333333333	0	0	0	218.866085375892	218.966070722905	0.0999853470129892	0.233359201578423
47006.5	100	450	3	26	2	2	90	1	1	0	1	112.5	67.5	1.1360235104064	2.74689875989477	0.116666666666667	0	0	0	219.082757759839	219.182725552586	0.0999677927466109	0.116687036934309
47064.75	100	451	3	27	2	2	90	1	1	0	2	67.5	112.5	3.07511444478213	2.18198130273546	0.133333333333333	0	0	0	219.316096725175	219.416073538829	0.099976813653484	0.13337117258925
47160.75	100	452	3	28	2	2	90	1	1	0	2	157.5	22.5	2.55188313307056	-2.21249868823113	0.283333333333333	0	0	0	219.699441505363	219.799423195305	0.0999816899420694	0.28336796653457
47248.25	100	453	3	29	2	2	90	1	1	0	2	157.5	22.5	1.64513402764443	0.146677010163391	0.25	0	0	0	220.049452635227	220.149432374747	0.0999797395197675	0.250029439921491
47327.25	100	454	3	30	2	2	90	1	1	0	2	67.5	112.5	1.42465729421294	2.54345687366285	0.216666666666667	0	0	0	220.36612523871	220.466110829613	0.0999855909030885	0.216692863963544
47414.75	100	455	3	31	2	2	90	1	1	0	2	157.5	112.5	2.38342337790688	2.25787270353242	0.25	0	0	0	220.716136368574	220.816117570852	0.0999812022782862	0.250025538960472
47464.75	100	456	3	32	2	2	90	1	1	0	1	112.5	157.5	-1.89102079034623	-2.48707990802588	0.1	0	0	0	220.916124373209	221.016128737363	0.100004364154302	0.100006802356802
47523.25	100	457	3	33	2	2	90	1	1	0	1	22.5	67.5	-3.09164033583826	-2.63896677533783	0.133333333333333	0	0	0	221.149483818561	221.249459413229	0.0999755946686491	0.133355081197806
47573.25	100	458	3	34	2	2	90	1	1	0	2	67.5	112.5	-0.312026307298273	-0.885285641100142	0.1	0	0	0	221.349484988838	221.449469116866	0.0999841280281544	0.100025575608015
47664.75	100	459	3	35	2	2	90	1	1	0	2	67.5	22.5	-1.6932662560838	0.427514031612645	0.266666666666667	0	0	0	221.716165138176	221.816129517625	0.099964379449375	0.266696021310054
47731.5	100	460	3	36	2	2	90	1	1	3	1	22.5	67.5	2.14427594845717	0.635029941799345	0.166666666666667	0	0	0	221.982836778508	222.082819931326	0.0999831528170034	0.166707260883413
47819	100	461	3	37	2	2	90	1	1	3	1	112.5	157.5	-0.421741571026708	-2.17370826712082	0.25	0	0	0	222.332848396036	222.432827891666	0.0999794956296682	0.25002846471034
47898.25	100	462	3	38	2	2	90	1	1	3	2	157.5	112.5	-2.29929514461883	-3.03050706861193	0.216666666666667	0	0	0	222.649524412816	222.749509028392	0.0999846155755222	0.21669652115088
47981.5	100	463	3	39	2	2	90	1	1	1	-1	90	45	2.18454130410085	0.3660745906242	0.233333333333333	0	0	0	222.982864816673	223.082848944585	0.0999841279117391	0.233355788281187
48044	100	464	3	40	2	2	90	1	1	3	1	22.5	157.5	2.94050976287505	-0.00362256990712551	0.15	0	0	0	223.232871338609	223.332853028434	0.099981689825654	0.150022394023836
48094	100	465	3	41	2	2	90	1	1	3	2	67.5	112.5	0.315234021685248	1.50901465614972	0.1	0	0	0	223.432878360269	223.532863219734	0.0999848594656214	0.100025331834331
48169	100	466	3	42	2	2	90	1	1	3	2	157.5	22.5	-0.672528697719148	-2.86066728447788	0.2	0	0	0	223.732885357575	223.832850712235	0.0999653546605259	0.200022137840278
48227.5	100	467	3	43	2	2	90	1	1	3	1	112.5	67.5	-0.573934334904485	1.45333313605115	0.133333333333333	1	0.875488868798129	1	223.966221641051	224.066211620462	0.0999899794114754	0.133370928815566
48277.5	100	468	3	44	2	2	90	1	1	0	1	22.5	157.5	-0.451552470934195	1.93517978939464	0.1	0	0	0	224.166232807562	224.266214497387	0.099981689825654	0.100021187099628
48356.5	100	469	3	45	2	2	90	1	1	0	2	157.5	112.5	0.280657627889108	2.24061689792572	0.216666666666667	0	0	0	224.482883955701	224.58286247612	0.0999785204185173	0.216669458313845
48423.25	100	470	3	46	2	2	90	1	1	0	1	22.5	157.5	-3.1363702045352	0.914125724470058	0.166666666666667	0	0	0	224.749559253221	224.849539724062	0.0999804708408192	0.166696777101606
48485.75	100	471	3	47	2	2	90	1	1	0	1	22.5	67.5	0.799820499637525	2.31951593714442	0.15	0	0	0	224.999565287493	225.099547708873	0.0999824213795364	0.150025563430972
48552.5	100	472	3	48	2	2	90	1	1	0	1	112.5	157.5	3.02415960361702	1.01149401916959	0.166666666666667	0	0	0	225.266235952615	225.366216911119	0.0999809585046023	0.166688243742101
48606.5	100	473	3	49	2	2	90	1	1	0	2	67.5	112.5	0.96510285086851	-1.19063719860002	0.116666666666667	0	0	0	225.482915163273	225.582889051293	0.0999738880200312	0.116698252153583
48706.5	100	474	3	50	2	2	90	1	1	0	1	22.5	157.5	1.59771566755784	-2.31918654496529	0.3	0	0	0	225.882919942029	225.982899437658	0.0999794956296682	0.300030890735798
48769	100	475	3	51	2	2	90	1	1	0	1	22.5	157.5	2.96291837745048	2.81284283271924	0.15	0	0	0	226.132927195285	226.23290815379	0.0999809585046023	0.150027757626958
48856.5	100	476	3	52	2	2	90	1	1	0	1	112.5	157.5	-0.642530146376973	0.970726244526952	0.25	0	0	0	226.482930767117	226.582910262747	0.0999794956296682	0.250022613327019
48948.25	100	477	3	53	2	2	90	1	1	0	2	157.5	112.5	1.82446487809571	1.21280987453806	0.266666666666667	0	0	0	226.849617499392	226.949584316812	0.0999668174190447	0.266707236645743
49027.5	100	478	3	54	2	2	90	1	1	0	1	22.5	67.5	-1.69246399043286	-0.434068243881409	0.216666666666667	0	0	0	227.166278643766	227.266277644085	0.0999990003183484	0.216694326954894
49098.25	100	479	3	55	2	2	90	1	1	0	2	157.5	112.5	-0.25393818664246	-3.06775242107387	0.183333333333333	0	0	0	227.449656606419	227.549619522993	0.0999629165744409	0.183378962334245
49190	100	480	3	56	2	2	90	1	1	0	2	67.5	112.5	2.0102589112269	-0.791078623566761	0.266666666666667	0	0	0	227.816326759523	227.916296258918	0.0999694993952289	0.266707236529328
49252.5	100	481	3	57	2	2	90	1	1	0	2	67.5	22.5	-2.77162678304274	1.63554366284084	0.15	0	0	0	228.066338157631	228.166322529432	0.0999843718018383	0.150041898712516
49319	100	482	3	58	2	2	90	1	1	0	2	157.5	112.5	-2.00628249166567	2.11377486064146	0.166666666666667	0	0	0	228.332990780938	228.432989537483	0.0999987565446645	0.166668251506053
49381.5	100	483	3	59	2	2	90	1	1	0	1	112.5	157.5	-3.06261614755276	-2.93874544391005	0.15	0	0	0	228.583018026664	228.682999472716	0.0999814460519701	0.150028489180841
49477.5	100	484	3	60	2	2	90	1	1	0	1	22.5	67.5	2.53932315953253	-1.90638387312555	0.283333333333333	0	0	0	228.966358662001	229.066340839607	0.0999821776058525	0.283359189284965
49527.5	100	485	3	61	2	2	90	1	1	0	1	112.5	67.5	2.49246530560366	2.76489234799396	0.1	0	0	0	229.166366415215	229.266346886056	0.0999804708408192	0.100025575608015
49610.75	100	486	3	62	2	2	90	1	1	0	2	157.5	22.5	-0.207858947631436	1.86812708090431	0.233333333333333	0	0	0	229.499712182791	229.599694116507	0.0999819337157533	0.233365296735428
49660.75	100	487	3	63	2	2	90	1	1	0	1	22.5	67.5	1.82636300917786	-0.863547338017834	0.1	0	0	0	229.699716278818	229.799694799236	0.0999785204185173	0.100022162310779
49744	100	488	3	64	2	2	90	1	1	0	2	67.5	22.5	2.32854136705097	2.83844429121488	0.233333333333333	0	0	0	230.033053756924	230.133042761125	0.0999890042003244	0.233358957688324
49819	100	489	3	65	2	2	90	1	1	0	1	22.5	157.5	-0.00826250776115156	-0.148539094124568	0.2	0	0	0	230.333068556152	230.433047076571	0.0999785204185173	0.200025795027614
49869	100	490	3	66	2	2	90	1	1	0	2	157.5	22.5	-0.78466310074233	0.915168315280944	0.1	0	0	0	230.533066556905	230.633053366793	0.0999868098879233	0.100019480334595
49948.25	100	491	3	67	2	2	90	1	1	0	1	22.5	157.5	-1.66718864499287	-0.222820016182552	0.216666666666667	0	0	0	230.849745499436	230.949726945488	0.0999814460519701	0.216692132642493
50040	100	492	3	68	2	2	90	1	1	0	1	22.5	67.5	-2.32123862361518	-2.68548001966552	0.266666666666667	0	0	0	231.216421016376	231.316401487216	0.0999804708408192	0.266694070887752
50110.75	100	493	3	69	2	2	90	1	1	0	2	67.5	22.5	1.38152454640665	-2.3618909405941	0.183333333333333	0	0	0	231.499760700972	231.599710939336	0.0999502383638173	0.183359213755466
50198.25	100	494	3	70	2	2	90	1	1	0	1	22.5	157.5	-1.73044352581546	0.901858286882946	0.25	0	0	0	231.849755983218	231.94975278934	0.0999968061223626	0.250045043881983
50273.25	100	495	3	71	2	2	90	1	1	0	2	157.5	22.5	0.58923712092883	1.45996446765174	0.2	0	0	0	232.14978077868	232.249760518083	0.0999797394033521	0.200027989340015
50335.75	100	496	3	72	2	2	90	1	1	0	1	112.5	67.5	0.81320606856768	2.60510576896435	0.15	0	0	0	232.399784374866	232.499770209542	0.0999858346767724	0.150023856782354
50394	100	497	3	73	2	2	90	1	1	0	2	67.5	22.5	-1.27308811150132	-1.2354955884053	0.133333333333333	0	0	0	232.633126997272	232.733107712003	0.0999807147309184	0.133356787730008
50460.75	100	498	3	74	2	2	90	1	1	0	1	22.5	67.5	0.557821589403794	1.48453918618642	0.166666666666667	0	0	0	232.899804489105	232.999784472398	0.0999799832934514	0.166696777101606
50552.5	100	499	3	75	2	2	90	1	1	0	1	22.5	157.5	0.780220587144161	-0.539483852507364	0.266666666666667	0	0	0	233.266480737482	233.366455844603	0.0999751071212813	0.266696265083738
50644	100	500	3	76	2	2	90	1	1	0	2	157.5	22.5	-0.48239260390836	1.09704814305657	0.266666666666667	0	0	0	233.633155035437	233.733135506278	0.0999804708408192	0.266699190833606
50719	100	501	3	77	2	2	90	1	1	0	2	157.5	112.5	-2.38069935264676	-1.68190276674865	0.2	0	0	0	233.933160569868	234.033128606505	0.0999680366367102	0.200025063590147
50798.25	100	502	3	78	2	2	90	1	1	0	1	112.5	67.5	1.88159973537919	2.08671967607987	0.216666666666667	0	0	0	234.249831466703	234.349818032701	0.0999865659978241	0.216702860197984
50898.25	100	503	3	79	2	2	90	1	1	0	2	67.5	22.5	2.08581997115114	2.80279625096189	0.3	0	0	0	234.649847704335	234.74982598098	0.0999782766448334	0.300029671634547
50981.5	100	504	3	80	2	2	90	1	1	0	1	22.5	157.5	-2.06116551117898	-1.08245306576606	0.233333333333333	0	0	0	234.983187132981	235.083165653283	0.099978520302102	0.233361152000725
51081.5	100	505	3	81	2	2	90	1	1	0	2	157.5	22.5	2.67536931027186	1.12593512012854	0.3	0	0	0	235.383199957316	235.483180672047	0.0999807147309184	0.300034304033034
51177.5	100	506	3	82	2	2	90	1	1	0	1	112.5	67.5	1.87176567069433	0.832130155475491	0.283333333333333	0	0	0	235.766539861332	235.866523014149	0.0999831528170034	0.283359189284965
51252.5	100	507	3	83	2	2	90	1	1	0	2	67.5	22.5	-0.507307122925089	-2.54133860528609	0.2	0	0	0	236.066550028161	236.166530986666	0.0999809585046023	0.200027014012448
51344.25	100	508	3	84	2	2	90	1	1	0	1	112.5	67.5	0.83883088987798	1.44110252423297	0.266666666666667	0	0	0	236.433226520428	236.533207722707	0.0999812022782862	0.266695533762686
51415	100	509	3	85	2	2	90	1	1	0	1	22.5	67.5	-2.68335426660143	1.17529543214478	0.183333333333333	0	0	0	236.716567667783	236.816547651077	0.0999799832934514	0.183359945076518
51469.25	100	510	3	86	2	2	90	1	1	0	1	22.5	157.5	0.427893561857108	-1.19149028088022	0.116666666666667	0	0	0	236.933241514722	237.033220522688	0.0999790079658851	0.116693863645196
51535.75	100	511	3	87	2	2	90	1	1	0	1	112.5	67.5	1.06350761789025	1.62146910586266	0.166666666666667	0	0	0	237.199910960742	237.299894844997	0.0999838842544705	0.166690438054502
51602.5	100	512	3	88	2	2	90	1	1	0	2	67.5	112.5	1.98318023393342	-2.14873584421591	0.166666666666667	0	0	0	237.466585770715	237.566570630064	0.0999848593492061	0.166690925718285
51677.5	100	513	3	89	2	2	90	1	1	0	2	67.5	112.5	-2.14223945529373	1.19958939236468	0.2	0	0	0	237.766595449881	237.866578358924	0.0999829090433195	0.200024819816463
51769.25	100	514	3	90	2	2	90	1	1	0	1	112.5	157.5	2.34464608336156	-1.3029041003281	0.266666666666667	0	0	0	238.133271698374	238.233251681551	0.099979983177036	0.266693339450285
51865	100	515	3	91	2	2	90	1	1	0	2	157.5	112.5	1.60533489377492	-1.92195055573391	0.283333333333333	0	0	0	238.51661404036	238.616599143599	0.0999851032393053	0.283362358808517
51952.5	100	516	3	92	2	2	90	1	1	0	2	67.5	22.5	-2.79170180835104	1.93634978357431	0.25	0	0	0	238.866625414114	238.966605884954	0.0999804708408192	0.250026270514354
52015	100	517	3	93	2	2	90	1	1	0	2	67.5	112.5	-1.15887937971152	-0.808522875744358	0.15	0	0	0	239.116630716948	239.216614844976	0.0999841280281544	0.150024831993505
52090	100	518	3	94	2	2	90	1	1	0	1	112.5	157.5	0.357398854471559	-1.53735824369125	0.2	0	0	0	239.416644540965	239.516618672758	0.0999741317937151	0.200029695988633
52148.25	100	519	3	95	2	2	90	1	1	0	2	157.5	112.5	0.398780256011094	1.24955457989328	0.133333333333333	0	0	0	239.649979117792	239.749961295282	0.0999821774894372	0.133360445033759
52231.75	100	520	3	96	2	2	90	1	1	0	1	112.5	67.5	1.92323591522543	0.374662720903637	0.233333333333333	0	0	0	239.983319277759	240.083305600099	0.0999863223405555	0.233357982477173
52290	100	521	3	97	2	2	90	1	1	0	1	22.5	157.5	-1.31522923397762	-1.93302593768977	0.133333333333333	0	0	0	240.216663606931	240.31664310256	0.0999794956296682	0.133358006831259
52348.25	100	522	3	98	2	2	90	1	1	0	1	112.5	67.5	1.03801715024988	1.97313302320321	0.133333333333333	0	0	0	240.449997696094	240.549982555443	0.0999848593492061	0.133354593534023
52423.25	100	523	3	99	2	2	90	1	1	0	1	22.5	67.5	2.87840305509465	2.37975400238719	0.2	0	0	0	240.750009081909	240.849992722389	0.0999836404807866	0.200026526465081
52490	100	524	3	100	2	2	90	1	1	0	2	157.5	22.5	-2.60749561070675	-1.09716715413671	0.166666666666667	0	0	0	241.016685354756	241.116665337933	0.099979983177036	0.166692632366903
52560.75	100	525	3	101	2	2	90	1	1	0	1	112.5	157.5	2.17330346853409	1.99886912488827	0.183333333333333	0	0	0	241.300027964986	241.400005997741	0.0999780327547342	0.183362627052702
52648.25	100	526	3	102	2	2	90	1	1	0	2	67.5	112.5	-2.00259341704498	2.90930119065445	0.25	0	0	0	241.650034950115	241.750013470533	0.0999785204185173	0.250028952374123
52715	100	527	3	103	2	2	90	1	1	0	2	67.5	22.5	0.825717034727977	-2.4262351487545	0.166666666666667	0	0	0	241.916709272424	242.016687549069	0.0999782766448334	0.166695801890455
52815	100	528	3	104	2	2	90	1	1	0	2	157.5	112.5	2.1156538798063	-0.314824276672623	0.3	0	0	0	242.316726485384	242.416705005802	0.0999785204185173	0.300038936315104
52885.75	100	529	3	105	2	2	90	1	1	3	2	67.5	112.5	2.21899711525338	-1.8771466623149	0.183333333333333	0	0	0	242.600060806144	242.700039570336	0.0999787641922012	0.183355800341815
52965	100	530	3	106	2	2	90	1	1	3	2	67.5	22.5	-1.53034410013122	-0.919431627671902	0.216666666666667	0	0	0	242.9167382858	243.016719975742	0.0999816899420694	0.216698715463281
53023.25	100	531	3	107	2	2	90	1	1	3	1	112.5	67.5	3.10971258070417	2.97812298065626	0.133333333333333	0	0	0	243.15007578826	243.250058941077	0.0999831528170034	0.133355812518857
53090	100	532	3	108	2	2	90	1	1	2	-1	45	90	2.85104771805194	0.963851425125212	0.166666666666667	0	0	0	243.416731337202	243.516709126183	0.0999777889810503	0.166672396124341
53152.5	100	533	3	109	2	2	90	1	1	3	2	157.5	112.5	-0.796048992201575	2.12339159033071	0.15	0	0	0	243.666757607716	243.766723937588	0.0999663298716769	0.150048481533304
53206.75	100	534	3	110	2	2	90	1	1	3	1	22.5	67.5	-2.41754545366959	0.73853130213331	0.116666666666667	0	0	0	243.883431454538	243.983412900707	0.0999814461683854	0.116707516950555
53294.25	100	535	3	111	2	2	90	1	1	3	2	157.5	22.5	1.93593139990793	2.64932374524575	0.25	0	0	0	244.233441609191	244.333405744866	0.0999641356756911	0.250028708484024
53385.75	100	536	3	112	2	2	90	1	1	3	1	112.5	157.5	-1.3035373101031	0.241971029757506	0.266666666666667	0	0	0	244.600125415716	244.700082480791	0.0999570650747046	0.266719670849852
53481.75	100	537	3	113	2	2	90	1	1	0	1	22.5	157.5	2.02256123371205	0.0353769755672735	0.283333333333333	0	0	0	244.983463613084	245.0834396953	0.0999760822160169	0.283381132292561
53581.75	100	538	3	114	2	2	90	1	1	0	1	112.5	157.5	-3.06690949580375	-1.40465467025454	0.3	0	0	0	245.383476437419	245.483453494962	0.0999770575435832	0.300036742119119
53681.75	100	539	3	115	2	2	90	1	1	0	1	22.5	67.5	-1.30913400132228	-1.20069563358237	0.3	0	0	0	245.783468050417	245.883458761266	0.0999907108489424	0.300014555454254
53735.75	100	540	3	116	2	2	90	1	1	0	2	157.5	22.5	-0.0466160097040573	2.2871964887098	0.116666666666667	0	0	0	246.00014848006	246.100127244252	0.0999787641922012	0.116689718794078
53790	100	541	3	117	2	2	90	1	1	0	1	112.5	157.5	0.238109757169598	1.54262273710669	0.116666666666667	0	0	0	246.216818426037	246.316799384542	0.0999809585046023	0.116691181785427
53877.5	100	542	3	118	2	2	90	1	1	0	1	22.5	67.5	1.58170254445725	-0.654908079386314	0.25	0	0	0	246.566830775002	246.666810514405	0.0999797394033521	0.250031390460208
53931.75	100	543	3	119	2	2	90	1	1	0	1	22.5	67.5	-0.106687741918427	-1.64774050789229	0.116666666666667	0	0	0	246.783506816137	246.883482410805	0.0999755946686491	0.116696301731281
53981.75	100	544	3	120	2	2	90	1	1	0	2	157.5	112.5	1.3475411632715	-1.3808693131207	0.1	0	0	0	246.983507254976	247.083486019168	0.0999787641922012	0.100024844170548
54031.75	100	545	3	121	2	2	90	1	1	0	2	67.5	22.5	-2.58778024286956	0.755989587576544	0.1	0	0	0	247.183511351002	247.283494747593	0.0999833965906873	0.100025331834331
54127.5	100	546	3	122	2	2	90	1	1	0	2	67.5	22.5	1.88094119907545	-2.29815791011497	0.283333333333333	0	0	0	247.56685881305	247.666836602031	0.0999777889810503	0.283364065457135
54206.75	100	547	3	123	2	2	90	1	1	0	2	157.5	22.5	-0.316670652017567	-1.92746870339014	0.216666666666667	0	0	0	247.883531416534	247.983512131148	0.0999807146145031	0.216694814502262
54269.25	100	548	3	124	2	2	90	1	1	3	2	157.5	22.5	-3.09632457612016	-2.40059868839359	0.15	0	0	0	248.133538426016	248.233520603506	0.0999821774894372	0.150026294868439
54360.75	100	549	3	125	2	2	90	1	1	3	2	67.5	22.5	1.6007006137329	-2.88854678823762	0.266666666666667	0	0	0	248.500215649605	248.600200265297	0.0999846156919375	0.266695046098903
54410.75	100	550	3	126	2	2	90	1	1	3	1	112.5	67.5	-3.08970913469711	-1.40729784726577	0.1	0	0	0	248.700219014194	248.800202654558	0.0999836403643712	0.100018748897128
54481.75	100	551	3	127	2	2	90	1	1	3	1	22.5	157.5	0.968562073732934	-0.888429706598405	0.183333333333333	0	0	0	248.983562355977	249.083542095381	0.0999797394033521	0.183359701419249
55406.75	100	552	4	0	2	1	90	1	1	3	2	157.5	22.5	2.35627179190921	3.10838031961933	0.233333333333333	0	0	0	252.683665804332	252.783625307609	0.0999595032772049	-1
55498.5	100	553	4	1	2	1	90	1	1	3	2	157.5	112.5	-2.63426143098901	2.45164604258612	0.266666666666667	0	0	0	253.050341321272	253.15030179976	0.0999604784883559	0.266716013662517
55577.5	100	554	4	2	2	1	90	1	1	3	1	112.5	157.5	-0.760356221490272	2.90990237209273	0.216666666666667	0	0	0	253.366997833364	253.466975134681	0.0999773013172671	0.216696033603512
55644.25	100	555	4	3	2	1	90	1	1	3	1	22.5	157.5	1.00594655967104	-1.18998608860345	0.166666666666667	0	0	0	253.633668010822	253.7336492131	0.0999812022782862	0.166692876140587
55731.75	100	556	4	4	2	1	90	1	1	0	1	22.5	157.5	1.97167039983419	-1.557221454766	0.25	0	0	0	253.983679384575	254.083693013526	0.100013628951274	0.250030171475373
55811	100	557	4	5	2	1	90	1	1	0	2	67.5	112.5	2.47257621827534	-0.0670631276822666	0.216666666666667	0	0	0	254.300381732755	254.400361472159	0.0999797394033521	0.216688719228841
55890	100	558	4	6	2	1	90	1	1	0	1	22.5	157.5	-0.616145135259104	-0.36762269938184	0.216666666666667	0	0	0	254.617056774325	254.717020422337	0.0999636480119079	0.216695302166045
55944.25	100	559	4	7	2	1	90	1	1	0	1	112.5	67.5	-2.69208027406352	2.97299389279279	0.116666666666667	0	0	0	254.833725501201	254.933709141565	0.0999836403643712	0.11670507886447
56036	100	560	4	8	2	1	90	1	1	0	1	112.5	67.5	1.99343858219638	1.28585083210156	0.266666666666667	0	0	0	255.200403700001	255.300391241326	0.0999875413253903	0.26669455843512
56131.75	100	561	4	9	2	1	90	1	1	0	2	67.5	112.5	0.427986635161735	0.996068235361453	0.283333333333333	0	0	0	255.583747992641	255.683737484389	0.0999894917476922	0.283356751315296
56194.25	100	562	4	10	2	1	90	1	1	0	1	22.5	157.5	-2.84723839531564	2.47522149540153	0.15	0	0	0	255.833756221109	255.933740105364	0.0999838842544705	0.150018736720085
56286	100	563	4	11	2	1	90	1	1	0	1	22.5	67.5	-0.526166348119071	2.77460644859635	0.266666666666667	0	0	0	256.200429300079	256.30040123756	0.0999719374813139	0.266689194715582
56369.25	100	564	4	12	2	1	90	1	1	0	1	112.5	157.5	1.76899492556846	-0.475483616870659	0.233333333333333	0	0	0	256.533781406702	256.633759683231	0.0999782765284181	0.233380169142038
56440	100	565	4	13	2	1	90	1	1	0	2	157.5	22.5	0.867377258698928	-0.921159137208145	0.183333333333333	0	0	0	256.817113045603	256.917102049687	0.0999890040839091	0.183353362372145
56490	100	566	4	14	2	1	90	1	1	0	1	112.5	157.5	0.985690609609435	-0.435752855109456	0.1	0	0	0	257.017122993013	257.117106633377	0.0999836403643712	0.100020943325944
56577.5	100	567	4	15	2	1	90	1	1	0	1	22.5	67.5	2.92052373169175	-1.61623650262005	0.25	0	0	0	257.367136073415	257.467099721311	0.0999636478954926	0.250029440037906
56677.5	100	568	4	16	2	1	90	1	1	0	2	67.5	22.5	1.72030826333196	1.29437143726942	0.3	0	0	0	257.767146459664	257.867112301989	0.0999658423243091	0.300046738353558
56752.5	100	569	4	17	2	1	90	1	1	0	1	112.5	67.5	2.16445909290347	-2.95542978721593	0.2	0	0	0	258.067156626494	258.16713563446	0.0999790079658851	0.200044324505143
56827.5	100	570	4	18	2	1	90	1	1	0	2	157.5	22.5	-0.236579384921072	-2.43122152739623	0.2	0	0	0	258.367156797205	258.46715823561	0.100001438404433	0.200021162745543
56906.75	100	571	4	19	2	1	90	1	1	0	1	112.5	157.5	1.39617931194419	2.79215388267139	0.216666666666667	0	0	0	258.683834764408	258.783818404772	0.0999836403643712	0.216676528798416
56965	100	572	4	20	2	1	90	1	1	0	2	157.5	112.5	1.03571522461453	0.988575190411463	0.133333333333333	0	0	0	258.917179825017	259.017156394897	0.0999765698798001	0.13336142024491
57065	100	573	4	21	2	1	90	1	1	0	1	22.5	67.5	2.86036546024396	0.752165353339945	0.3	0	0	0	259.317189479829	259.417153615505	0.0999641356756911	0.300033084931783
57123.5	100	574	4	22	2	1	90	1	1	0	2	67.5	112.5	2.39970533752841	2.81671332295934	0.133333333333333	0	0	0	259.550509428023	259.650512085529	0.100002657505684	0.133355812518857
57194.25	100	575	4	23	2	1	90	1	1	0	1	22.5	67.5	2.08156085204268	-1.66373937753181	0.183333333333333	0	0	0	259.833873249823	259.933836653945	0.0999634041218087	0.183361164294183
57294.25	100	576	4	24	2	1	90	1	1	0	2	157.5	22.5	-1.75124009870668	-1.60806945320798	0.3	0	0	0	260.233881685534	260.333862400264	0.0999807147309184	0.300045031588525
57361	100	577	4	25	2	1	90	1	1	0	1	22.5	157.5	-1.43165301690111	-0.649100286840993	0.166666666666667	0	0	0	260.500556495506	260.600518924417	0.0999624289106578	0.166694095241837
57427.5	100	578	4	26	2	1	90	1	1	0	2	67.5	112.5	-0.345360491303131	-0.984340886116763	0.166666666666667	0	0	0	260.767210337799	260.867187395343	0.0999770575435832	0.166691413382068
57523.5	100	579	4	27	2	1	90	1	1	0	1	22.5	67.5	1.25584966022256	-0.740793635201559	0.283333333333333	0	0	0	261.15054877894	261.250536564039	0.0999877850990742	0.283361383597367
57619.25	100	580	4	28	2	1	90	1	1	0	1	112.5	157.5	1.39178993886535	0.777105956206398	0.283333333333333	0	0	0	261.533915258129	261.633895241423	0.0999799832934514	0.283378694090061
57719.25	100	581	4	29	2	1	90	1	1	0	2	157.5	112.5	-0.0460620958891949	-0.351785713315397	0.3	0	0	0	261.933928570128	262.033907821984	0.0999792518559843	0.300033328705467
57811	100	582	4	30	2	1	90	1	1	0	2	67.5	112.5	-2.39190096088618	-2.99643969359856	0.266666666666667	0	0	0	262.300585801364	262.400567491306	0.0999816899420694	0.266677979379892
57869.25	100	583	4	31	2	1	90	1	1	0	2	157.5	22.5	2.94060765998327	1.18391873513668	0.133333333333333	0	0	0	262.533940858208	262.633930593845	0.0999897356377915	0.133373366901651
57969.25	100	584	4	32	2	1	90	1	1	0	1	112.5	157.5	0.998991957075138	0.712093737035769	0.3	0	0	0	262.933951975894	263.033938054345	0.0999860784504563	0.300021382048726
58036	100	585	4	33	2	1	90	1	1	0	2	67.5	22.5	2.90287169847133	-1.2306221875877	0.166666666666667	0	0	0	263.200626785751	263.300608719466	0.0999819337157533	0.166688731405884
58111	100	586	4	34	2	1	90	1	1	0	2	67.5	22.5	-0.957993428732079	0.552943929231862	0.2	0	0	0	263.500632564072	263.600615472998	0.0999829089269042	0.200023844605312
