onset	duration	total_event_number	stream_number	event_num_per_stream	timing_predictability	target_col	target_ori	n_targets	n_distractors	is_target	ori_pair_num	att_ori	unatt_ori	gabor_phase_att	gabor_phase_unatt	blank_dur	response	rt	correct	time_stimon	time_stimoff	stim_dur	ISI_dur
10640	100	0	0	0	1	2	0	1	2	3	1	22.5	67.5	-0.707029941828701	-1.0703551938722	0.2	0	0	0	95.7834619549103	95.8834197516553	0.0999577967450023	-1
10715	100	1	0	1	1	2	0	1	2	3	1	112.5	67.5	-0.439147118755236	-0.80491628408494	0.2	0	0	0	96.083463344723	96.1834243107587	0.0999609660357237	0.200043593067676
10790	100	2	0	2	1	2	0	1	2	3	2	67.5	22.5	2.70131544409519	-2.04440529721609	0.2	0	0	0	96.3834466924891	96.4834076585248	0.0999609660357237	0.200022381730378
10865	100	3	0	3	1	2	0	1	2	3	2	157.5	112.5	0.454304734146279	2.40824609961835	0.2	0	0	0	96.6834307718091	96.7834175815806	0.099986809771508	0.20002311328426
10940	100	4	0	4	1	2	0	1	2	0	1	22.5	67.5	2.79060733150595	0.652001990983765	0.2	0	0	0	96.9834714147728	97.0834494475275	0.0999780327547342	0.200053833192214
11015	100	5	0	5	1	2	0	1	2	0	1	22.5	67.5	-2.10200461692188	0.150386946285212	0.2	0	0	0	97.2834552503191	97.3834249933716	0.0999697430524975	0.200005802791566
11090	100	6	0	6	1	2	0	1	2	0	2	67.5	22.5	-1.28048373762228	1.59931914860782	0.2	0	0	0	97.5834566398989	97.683432234684	0.0999755947850645	0.20003164652735
11165	100	7	0	7	1	2	0	1	2	0	2	157.5	22.5	-0.180773147541247	-2.58422270042174	0.2	0	0	0	97.8834943573456	97.9834716585465	0.0999773012008518	0.20006212266162
11240	100	8	0	8	1	2	0	1	2	0	1	112.5	67.5	2.51765676527168	-0.885807251776194	0.2	0	0	0	98.1834684403148	98.2834537874442	0.0999853471294045	0.199996781768277
11315	100	9	0	9	1	2	0	1	2	0	2	67.5	112.5	-1.16215584715836	1.96598175846979	0.2	0	0	0	98.4834890910424	98.5834988190327	0.100009727990255	0.20003530359827
11390	100	10	0	10	1	2	0	1	2	0	2	67.5	112.5	-0.502722948899723	-2.52334076138458	0.2	0	0	0	98.7834838978015	98.8834670507349	0.0999831529334188	0.199985078768805
11465	100	11	0	11	1	2	0	1	2	0	2	157.5	22.5	-1.78921239967494	-1.99553033783981	0.2	0	0	0	99.0834986970294	99.1834794117603	0.0999807147309184	0.200031646294519
11540	100	12	0	12	1	2	0	1	2	0	2	67.5	22.5	1.89373493973799	3.06014619903527	0.2	0	0	0	99.3835032563657	99.4834915290121	0.0999882726464421	0.200023844605312
11615	100	13	0	13	1	2	0	1	2	0	2	157.5	22.5	1.89189454583547	1.01164060122937	0.2	0	0	0	99.6835104974452	99.7834970636759	0.0999865662306547	0.200018968433142
11690	100	14	0	14	1	2	0	1	2	0	1	112.5	157.5	-1.01454207118053	3.09457647659085	0.2	0	0	0	99.9835226149298	100.084017036483	0.100494421552867	0.20002555125393
11765	100	15	0	15	1	2	0	1	2	0	1	22.5	157.5	-0.677441365067252	-2.65842743129328	0.2	0	0	0	100.283526198938	100.383506425889	0.09998022695072	0.199509162455797
11840	100	16	0	16	1	2	0	1	2	0	2	157.5	22.5	-0.022679533577461	2.67479431199795	0.2	0	0	0	100.583537340863	100.68351781182	0.0999804709572345	0.200030914973468
11915	100	17	0	17	1	2	0	1	2	0	1	22.5	157.5	2.25321006508999	3.05600244830576	0.2	0	0	0	100.883547995472	100.983516032109	0.0999680366367102	0.200030183652416
11990	100	18	0	18	1	2	0	1	2	0	1	22.5	67.5	-1.38179218133444	-2.06075246575731	0.2	0	0	0	101.18355328613	101.283567158971	0.100013872841373	0.200037254020572
12065	100	19	0	19	1	2	0	1	2	0	2	67.5	22.5	0.803374391603157	-0.131125786504774	0.2	0	0	0	101.483566378709	101.583546118112	0.0999797394033521	0.199999219737947
12140	100	20	0	20	1	2	0	1	2	0	2	157.5	22.5	-1.93988592158427	2.42735895916779	0.2	0	0	0	101.783598975977	101.883553115418	0.0999541394412518	0.200052857864648
12215	100	21	0	21	1	2	0	1	2	0	2	157.5	22.5	-0.660992457306952	-1.74564445395798	0.2	0	0	0	102.083579398226	102.183556211879	0.099976813653484	0.200026282807812
12290	100	22	0	22	1	2	0	1	2	0	2	157.5	112.5	0.751128388801311	1.8012443501641	0.2	0	0	0	102.383584444877	102.483566134935	0.0999816900584847	0.200028232997283
12365	100	23	0	23	1	2	0	1	2	0	2	67.5	22.5	1.67648122562508	1.0069675834707	0.2	0	0	0	102.683623137651	102.783614336047	0.0999911983963102	0.200057002715766
12440	100	24	0	24	1	2	0	1	2	0	2	157.5	112.5	-1.44864141879483	2.21654854017066	0.2	0	0	0	102.983623064356	103.083602072438	0.0999790080823004	0.200008728308603
12515	100	25	0	25	1	2	0	1	2	0	1	22.5	157.5	2.23878026666137	1.17972665056096	0.2	0	0	0	103.283642008435	103.383621260291	0.0999792518559843	0.200039935996756
12590	100	26	0	26	1	2	0	1	2	0	1	112.5	157.5	2.3252806281187	2.39413493581727	0.2	0	0	0	103.583650224842	103.683630695567	0.0999804707244039	0.200028964551166
12665	100	27	0	27	1	2	0	1	2	0	2	67.5	22.5	1.18031356061161	-1.64975294619675	0.2	0	0	0	103.883637473453	103.983618919738	0.0999814462848008	0.200006777886301
12740	100	28	0	28	1	2	0	1	2	0	2	67.5	112.5	-0.22257385391192	-0.0638639952100015	0.2	0	0	0	104.183645202313	104.283617871348	0.0999726690351963	0.200026282574981
12815	100	29	0	29	1	2	0	1	2	0	1	112.5	157.5	-0.174777667006896	-1.75225793481141	0.2	0	0	0	104.483675361611	104.583638034295	0.0999626726843417	0.200057490263134
12890	100	30	0	30	1	2	0	1	2	0	2	67.5	112.5	-0.604906564295447	-0.831785576218361	0.2	0	0	0	104.783685284667	104.883642837405	0.0999575527384877	0.200047250371426
12965	100	31	0	31	1	2	0	1	2	0	2	157.5	22.5	-0.688371480850712	1.54360956612662	0.2	0	0	0	105.083670582855	105.183630086016	0.0999595031607896	0.200027745449916
13040	100	32	0	32	1	2	0	1	2	0	2	157.5	22.5	1.87247241168795	0.233901764425741	0.2	0	0	0	105.383674166864	105.483659026446	0.0999848595820367	0.200044080847874
13115	100	33	0	33	1	2	0	1	2	0	1	22.5	67.5	-1.81461374766062	0.18699248258125	0.2	0	0	0	105.683687259443	105.783668461721	0.0999812022782862	0.200028232997283
13190	100	34	0	34	1	2	0	1	2	3	1	112.5	157.5	-2.1567505375946	-0.302322114090952	0.2	0	0	0	105.983689868357	106.083674240159	0.0999843718018383	0.200021406635642
13265	100	35	0	35	1	2	0	1	2	3	1	22.5	157.5	0.691206971634305	1.90286559496468	0.2	0	0	0	106.28372685425	106.383680505911	0.0999536516610533	0.200052614090964
13340	100	36	0	36	1	2	0	1	2	3	2	157.5	112.5	-1.52468369229646	0.0394886483933203	0.2	0	0	0	106.58371044579	106.683690185193	0.0999797394033521	0.200029939878732
13415	100	37	0	37	1	2	0	1	2	2	-1	135	0	-0.654813704084998	2.95003665371859	0.2	0	0	0	106.883720368845	106.983699864475	0.0999794956296682	0.200030183652416
13490	100	38	0	38	1	2	0	1	2	3	2	67.5	22.5	1.69501098205723	-1.17416181833183	0.2	0	0	0	107.183731754776	107.283707593102	0.0999758383259177	0.200031890301034
13565	100	39	0	39	1	2	0	1	2	3	1	22.5	67.5	-0.747167414958605	-0.387731601208732	0.2	0	0	0	107.483732169261	107.583723611431	0.0999914421699941	0.200024576159194
13640	100	40	0	40	1	2	0	1	2	3	1	112.5	67.5	-1.7446182142223	0.553765052068595	0.2	0	0	0	107.783742092317	107.883726707892	0.0999846155755222	0.200018480885774
13715	100	41	0	41	1	2	0	1	2	3	2	157.5	22.5	-2.80606549281465	-1.56273201153268	0.2	0	0	0	108.083754209569	108.1837290728	0.0999748632311821	0.200027501676232
13790	100	42	0	42	1	2	0	1	2	0	1	22.5	67.5	2.83345722150694	2.49681614655906	0.2	0	0	0	108.383754136506	108.48373972741	0.0999855909030885	0.200025063706562
13865	100	43	0	43	1	2	0	1	2	0	1	112.5	67.5	-2.12433565951408	-0.260531820702217	0.2	0	0	0	108.683765766211	108.783777932171	0.100012165959924	0.200026038801298
13940	100	44	0	44	1	2	0	1	2	0	2	157.5	22.5	0.680330325715295	0.384119856660211	0.2	0	0	0	108.983794950182	109.083762499038	0.0999675488565117	0.20001701801084
14015	100	45	0	45	1	2	0	1	2	0	1	112.5	67.5	2.00074958369222	2.04832735319525	0.2	0	0	0	109.283804141916	109.383784612641	0.0999804707244039	0.200041642878205
14090	100	46	0	46	1	2	0	1	2	0	1	22.5	157.5	0.39189491088245	-0.601953107139475	0.2	0	0	0	109.583795779152	109.683771861484	0.0999760823324323	0.200011166511104
14165	100	47	0	47	1	2	0	1	2	0	1	112.5	157.5	1.78654460476873	-0.699656201309172	0.2	0	0	0	109.883800094482	109.98377885879	0.0999787643086165	0.200028232997283
14240	100	48	0	48	1	2	0	1	2	0	1	22.5	157.5	2.60899747919636	-2.96614546620517	0.2	0	0	0	110.183807579568	110.283790000947	0.0999824213795364	0.200028720777482
14315	100	49	0	49	1	2	0	1	2	0	1	112.5	67.5	-0.379238408412137	0.0710408499407387	0.2	0	0	0	110.483814576874	110.583798948675	0.0999843718018383	0.200024575926363
14390	100	50	0	50	1	2	0	1	2	0	2	67.5	22.5	-2.64528919696998	-0.262665795431622	0.2	0	0	0	110.783823037054	110.883804970654	0.0999819335993379	0.200024088378996
14465	100	51	0	51	1	2	0	1	2	0	1	22.5	67.5	1.22790389888629	2.92206337416106	0.2	0	0	0	111.083832228789	111.183811480412	0.0999792516231537	0.200027258135378
14540	100	52	0	52	1	2	0	1	2	0	2	157.5	112.5	-2.43211752814016	0.820430249277847	0.2	0	0	0	111.383858730784	111.483822135022	0.099963404238224	0.200047250371426
14615	100	53	0	53	1	2	0	1	2	0	2	67.5	112.5	0.382057083649845	-0.958788663051394	0.2	0	0	0	111.683865484316	111.783851562766	0.0999860784504563	0.200043349293992
14690	100	54	0	54	1	2	0	1	2	0	1	112.5	157.5	-1.52711894801812	1.86132400730662	0.2	0	0	0	111.983857853105	112.083836129634	0.0999782765284181	0.200006290338933
14765	100	55	0	55	1	2	0	1	2	0	2	67.5	22.5	1.72230170037175	2.57770257483748	0.2	0	0	0	112.28386948281	112.383849465987	0.099979983177036	0.200033353175968
14840	100	56	0	56	1	2	0	1	2	3	1	112.5	157.5	-2.88161795629059	1.60575465061076	0.2	0	0	0	112.583875992568	112.683855488198	0.0999794956296682	0.200026526581496
14915	100	57	0	57	1	2	0	1	2	3	2	67.5	112.5	-2.64088613031896	-0.103962017132751	0.2	0	0	0	112.883877382148	112.9838646797	0.0999872975517064	0.200021893950179
14990	100	58	0	58	1	2	0	1	2	3	2	157.5	112.5	2.38177765153829	0.8792616055533	0.2	0	0	0	113.183883404359	113.283895814326	0.100012409966439	0.200018724659458
15065	100	59	0	59	1	2	0	1	2	1	-1	0	135	2.544914293475	-0.145486201524931	0.2	0	0	0	113.48391843983	113.583899642108	0.0999812022782862	0.200022625504062
15140	100	60	0	60	1	2	0	1	2	3	2	157.5	22.5	-1.27587336038756	0.651118189873061	0.2	0	0	0	113.783904469572	113.883883477421	0.0999790078494698	0.200004827463999
15215	100	61	0	61	1	2	0	1	2	3	1	22.5	67.5	-0.961876369398046	-2.72509631164325	0.2	1	0.492156522814184	1	114.083911954425	114.183916074922	0.100004120497033	0.200028477003798
15290	100	62	0	62	1	2	0	1	2	3	1	112.5	67.5	-2.67202085087668	2.6640705499435	0.2	0	0	0	114.383944064146	114.483906249283	0.0999621851369739	0.200027989223599
15365	100	63	0	63	1	2	0	1	2	3	2	67.5	22.5	2.88943592654345	-2.7075573446361	0.2	0	0	0	114.68392838724	114.783935920801	0.100007533561438	0.200022137956694
15440	100	64	0	64	1	2	0	1	2	0	2	67.5	22.5	-0.290473016838817	-2.30817417156802	0.2	0	0	0	114.983962691156	115.083938529715	0.0999758385587484	0.20002677035518
15515	100	65	0	65	1	2	0	1	2	0	2	157.5	112.5	-1.85132354146638	-2.84700850717244	0.2	0	0	0	115.283945551375	115.383927972754	0.0999824213795364	0.200007021659985
15590	100	66	0	66	1	2	0	1	2	0	1	112.5	157.5	2.99436154978963	-0.641467398027325	0.2	0	0	0	115.583954011556	115.68396398332	0.100009971763939	0.200026038801298
15665	100	67	0	67	1	2	0	1	2	0	2	157.5	112.5	-0.699754434012495	0.513959105786965	0.2	0	0	0	115.883961984189	115.983933921671	0.0999719374813139	0.199998000869527
15740	100	68	0	68	1	2	0	1	2	0	1	22.5	157.5	1.62553336056437	0.758200177841505	0.2	0	0	0	116.183989705285	116.283973833313	0.0999841280281544	0.200055783614516
15815	100	69	0	69	1	2	0	1	2	0	1	22.5	67.5	2.23351314859206	1.33854162490311	0.2	0	0	0	116.484005723614	116.58396083815	0.0999551145359874	0.200031890301034
15890	100	70	0	70	1	2	0	1	2	0	2	157.5	22.5	-0.627954327542747	0.24187462748941	0.2	0	0	0	116.783987608505	116.883974906057	0.0999872975517064	0.20002677035518
15965	100	71	0	71	1	2	0	1	2	0	2	67.5	112.5	-2.65656686379547	-3.02518231558273	0.2	0	0	0	117.084014110733	117.183996288106	0.0999821773730218	0.200039204675704
16040	100	72	0	72	1	2	0	1	2	0	2	67.5	22.5	2.61226819394092	-1.59978882782952	0.2	0	0	0	117.384020620259	117.484004260739	0.0999836404807866	0.20002433215268
16115	100	73	0	73	1	2	0	1	2	0	1	22.5	67.5	1.87461084129879	1.57901587114151	0.2	0	0	0	117.68400884443	117.783992484678	0.0999836402479559	0.200004583690315
16190	100	74	0	74	1	2	0	1	2	0	1	112.5	157.5	-0.842685496443717	-1.85047082433695	0.2	0	0	0	117.984043148346	118.084005577257	0.0999624289106578	0.200050663668662
16265	100	75	0	75	1	2	0	1	2	0	2	157.5	22.5	3.13898896060379	2.82267381195089	0.2	0	0	0	118.284049658105	118.384030372836	0.0999807147309184	0.200044080847874
16340	100	76	0	76	1	2	0	1	2	0	1	112.5	67.5	-0.528461069419262	-2.6267238495829	0.2	0	0	0	118.584057142958	118.684030543314	0.099973400356248	0.200026770122349
16415	100	77	0	77	1	2	0	1	2	0	1	112.5	157.5	1.32722551198304	-1.4411841695865	0.2	0	0	0	118.884059264092	118.984035834204	0.0999765701126307	0.200028720777482
16490	100	78	0	78	1	2	0	1	2	0	2	157.5	22.5	-0.350354364704487	2.37955113561	0.2	0	0	0	119.184064067202	119.284031372285	0.0999673050828278	0.200028232997283
16565	100	79	0	79	1	2	0	1	2	0	1	22.5	67.5	0.807970398637728	0.900619102880355	0.2	0	0	0	119.48405277892	119.584060068708	0.100007289787754	0.200021406635642
16640	100	80	0	80	1	2	0	1	2	0	2	157.5	22.5	2.7690992651303	0.689490138436264	0.2	0	0	0	119.784067334374	119.884047561325	0.09998022695072	0.2000072656665
16715	100	81	0	81	1	2	0	1	2	0	1	112.5	157.5	0.860400138344963	0.826241698698331	0.2	0	0	0	120.084076038329	120.184057484381	0.0999814460519701	0.200028477003798
16790	100	82	0	82	1	2	0	1	2	0	2	67.5	112.5	2.70019716435956	-2.05884725114331	0.2	0	0	0	120.384084254736	120.484066676116	0.0999824213795364	0.20002677035518
16865	100	83	0	83	1	2	0	1	2	0	1	112.5	67.5	-0.1339720517604	-2.20415977356912	0.2	0	0	0	120.68411660823	120.784081719117	0.099965110886842	0.20004993211478
16940	100	84	0	84	1	2	0	1	2	0	2	157.5	112.5	-2.39909301576199	-0.534323270310046	0.2	0	0	0	120.984102881746	121.084085059352	0.0999821776058525	0.200021162629128
17015	100	85	0	85	1	2	0	1	2	0	2	157.5	112.5	0.36625416518553	-2.32481628407545	0.2	0	0	0	121.284103783779	121.384089862229	0.0999860784504563	0.200018724426627
17090	100	86	0	86	1	2	0	1	2	0	1	22.5	157.5	-0.806742495159339	1.31424968341801	0.2	0	0	0	121.584116145037	121.684098078636	0.0999819335993379	0.200026282807812
17165	100	87	0	87	1	2	0	1	2	0	1	22.5	157.5	-2.11856050343629	-2.63072122346314	0.2	0	0	0	121.884128262289	121.984107757919	0.0999794956296682	0.200030183652416
17240	100	88	0	88	1	2	0	1	2	0	2	157.5	112.5	1.29889313647347	-0.852575516373571	0.2	0	0	0	122.184133552946	122.284112561028	0.0999790080823004	0.200025795027614
17315	100	89	0	89	1	2	0	1	2	0	1	22.5	157.5	-1.08978832424693	-3.12526809241427	0.2	0	0	0	122.484142744681	122.584122727858	0.099979983177036	0.200030183652416
17390	100	90	0	90	1	2	0	1	2	0	1	22.5	67.5	2.26082451237961	2.39101538371309	0.2	0	0	0	122.784150473308	122.884130944265	0.0999804709572345	0.200027745449916
17465	100	91	0	91	1	2	0	1	2	0	2	157.5	112.5	-1.51669131786443	-2.16278897237974	0.2	0	0	0	123.084176731762	123.184161591111	0.0999848593492061	0.200045787496492
17540	100	92	0	92	1	2	0	1	2	0	1	22.5	67.5	2.97672505850218	-0.553416846323197	0.2	0	0	0	123.384185923263	123.48415103415	0.099965110886842	0.20002433215268
17615	100	93	0	93	1	2	0	1	2	0	1	22.5	157.5	-3.11093645807327	-1.79035669702391	0.2	0	0	0	123.684191945475	123.78415291151	0.0999609660357237	0.200040911324322
17690	100	94	0	94	1	2	0	1	2	0	2	157.5	112.5	-2.08157007774002	-1.26845907404334	0.2	0	0	0	123.984179925639	124.084159908816	0.099979983177036	0.200027014128864
17765	100	95	0	95	1	2	0	1	2	0	1	22.5	67.5	0.930566886156908	0.0477107473637193	0.2	0	0	0	124.284214717103	124.384191774763	0.0999770576599985	0.20005480828695
17840	100	96	0	96	1	2	0	1	2	0	2	67.5	112.5	-2.38162349190252	-0.779308249930736	0.2	0	0	0	124.584219276439	124.684182192897	0.0999629164580256	0.200027501676232
17915	100	97	0	97	1	2	0	1	2	0	1	112.5	67.5	-2.44517270281512	-2.11482808688298	0.2	0	0	0	124.88420408708	124.984178218991	0.0999741319101304	0.20002189418301
17990	100	98	0	98	1	2	0	1	2	0	1	112.5	157.5	1.79837473145799	2.44829327057754	0.2	0	0	0	125.184215960559	125.284219349502	0.100003388943151	0.20003774156794
18065	100	99	0	99	1	2	0	1	2	0	1	112.5	157.5	0.634579149928572	0.0932219801080683	0.2	0	0	0	125.484224664746	125.584226834588	0.1000021698419	0.200005315244198
18140	100	100	0	100	1	2	0	1	2	0	2	157.5	112.5	0.165307405831301	0.234695066529259	0.2	0	0	0	125.784247265896	125.884206281276	0.0999590153805912	0.200020431308076
18215	100	101	0	101	1	2	0	1	2	3	2	67.5	22.5	0.130153609366849	-1.23866880118349	0.2	0	0	0	126.0842588956	126.184239366325	0.0999804707244039	0.200052614323795
18290	100	102	0	102	1	2	0	1	2	3	1	22.5	157.5	-0.558092206418846	-0.624422200397112	0.2	0	0	0	126.384265892906	126.484254409326	0.099988516420126	0.200026526581496
18365	100	103	0	103	1	2	0	1	2	3	2	157.5	112.5	-1.2977856486853	-2.07179449018673	0.2	0	0	0	126.684271914884	126.784239219967	0.0999673050828278	0.200017505558208
18440	100	104	0	104	1	2	0	1	2	2	-1	135	0	-1.70143014723181	-2.75253202830497	0.2	0	0	0	126.984287201893	127.084267916391	0.0999807144980878	0.200047981925309
18515	100	105	0	105	1	2	0	1	2	3	2	67.5	112.5	-2.00802209459332	3.0187867912944	0.2	0	0	0	127.284271524753	127.384250776609	0.0999792518559843	0.200003608362749
18590	100	106	0	106	1	2	0	1	2	3	1	112.5	157.5	2.28676012065747	-1.39109522078234	0.2	0	0	0	127.584274377441	127.68425972457	0.0999853471294045	0.200023600831628
18665	100	107	0	107	1	2	0	1	2	3	1	112.5	67.5	-3.13095835440112	1.10717736498504	0.2	0	0	0	127.884281374747	127.984288908541	0.100007533794269	0.200021650176495
18740	100	108	0	108	1	2	0	1	2	3	1	22.5	67.5	-2.80909025824291	-1.23151931696222	0.2	0	0	0	128.184300806373	128.284255433362	0.0999546269886196	0.200011897832155
18815	100	109	0	109	1	2	0	1	2	0	2	67.5	22.5	2.56125938601596	1.81875668835289	0.2	0	0	0	128.484301464632	128.58428851841	0.0999870537780225	0.200046031270176
18890	100	110	0	110	1	2	0	1	2	0	2	67.5	112.5	0.276992790556292	-2.60237110711386	0.2	0	0	0	128.784312363015	128.884295028169	0.0999826651532203	0.200023844605312
18965	100	111	0	111	1	2	0	1	2	0	1	22.5	67.5	2.57077552317598	-2.41295520380881	0.2	0	0	0	129.084342766088	129.1843005626	0.0999577965121716	0.200047737918794
19040	100	112	0	112	1	2	0	1	2	0	1	22.5	157.5	1.77470538148981	0.687016563199037	0.2	0	0	0	129.384322456783	129.484313411405	0.0999909546226263	0.20002189418301
19115	100	113	0	113	1	2	0	1	2	0	1	112.5	157.5	0.429387255713509	-3.04497970705167	0.2	0	0	0	129.684347252129	129.784318458289	0.0999712061602622	0.200033840723336
19190	100	114	0	114	1	2	0	1	2	0	2	67.5	22.5	2.74409847132602	-1.6884432365496	0.2	0	0	0	129.984340352239	130.08432643069	0.0999860784504563	0.200021893950179
19265	100	115	0	115	1	2	0	1	2	0	2	67.5	22.5	0.0418527420882446	-3.08747542941786	0.2	0	0	0	130.284348324873	130.38433489087	0.0999865659978241	0.20002189418301
19340	100	116	0	116	1	2	0	1	2	0	2	157.5	112.5	-0.372268758341226	2.58251001048105	0.2	0	0	0	130.584377996391	130.684361636871	0.0999836404807866	0.200043105520308
19415	100	117	0	117	1	2	0	1	2	0	1	112.5	67.5	0.738019019062486	0.202561918912985	0.2	0	0	0	130.884363782359	130.984347666614	0.0999838842544705	0.200002145487815
19490	100	118	0	118	1	2	0	1	2	0	2	157.5	112.5	-0.679802014674866	2.42197809275725	0.2	0	0	0	131.184374436969	131.284350763075	0.0999763261061162	0.20002677035518
19565	100	119	0	119	1	2	0	1	2	0	1	112.5	67.5	-1.56013861650204	-0.299654215087529	0.2	0	0	0	131.484403864713	131.58437433932	0.0999704746063799	0.200053101638332
19640	100	120	0	120	1	2	0	1	2	0	1	112.5	67.5	0.6100225779288	1.45579962318521	0.2	0	0	0	131.784393307753	131.884371096734	0.0999777889810503	0.200018968433142
19715	100	121	0	121	1	2	0	1	2	0	2	67.5	112.5	3.05297444406746	2.32201505575435	0.2	0	0	0	132.084400305059	132.184378337814	0.0999780327547342	0.20002920832485
19790	100	122	0	122	1	2	0	1	2	0	1	112.5	157.5	-1.00503328106671	1.15340126562616	0.2	0	0	0	132.384404132841	132.484419712331	0.100015579489991	0.200025795027614
19865	100	123	0	123	1	2	0	1	2	0	1	112.5	67.5	-0.418460386415712	1.24003253299822	0.2	0	0	0	132.684432829265	132.784401597222	0.0999687679577619	0.200013116933405
19940	100	124	0	124	1	2	0	1	2	0	2	67.5	112.5	0.66363498090725	-1.02899622027555	0.2	0	0	0	132.984425441828	133.084404206136	0.0999787643086165	0.200023844605312
20015	100	125	0	125	1	2	0	1	2	0	2	67.5	22.5	1.10199211809507	-2.05727590848413	0.2	0	0	0	133.284430488711	133.384416810935	0.0999863222241402	0.200026282574981
20090	100	126	0	126	1	2	0	1	2	0	2	67.5	112.5	0.76728640325258	0.190522192165834	0.2	0	0	0	133.584468937479	133.684417469194	0.0999485317151994	0.200052126543596
20165	100	127	0	127	1	2	0	1	2	0	1	22.5	157.5	-1.34858338197681	-1.96064053640031	0.2	0	0	0	133.884449603269	133.984432268422	0.0999826651532203	0.200032134074718
20240	100	128	0	128	1	2	0	1	2	0	1	112.5	67.5	2.76161039677117	-0.157647861929828	0.2	0	0	0	134.184454894159	134.284433414461	0.099978520302102	0.200022625736892
20315	100	129	0	129	1	2	0	1	2	0	1	22.5	157.5	-1.900744435084	2.53262544928969	0.2	0	0	0	134.48446286656	134.584445775487	0.0999829089269042	0.200029452098534
20390.25	100	130	0	130	1	2	0	1	2	0	2	67.5	112.5	1.84659637976735	-0.899836729881525	0.2	0	0	0	134.784493269632	134.884473984363	0.0999807147309184	0.20004749414511
20465.25	100	131	0	131	1	2	0	1	2	0	1	112.5	67.5	1.09934813647879	2.70466095156765	0.2	0	0	0	135.084500023164	135.184477080824	0.0999770576599985	0.200026038801298
20540.25	100	132	0	132	1	2	0	1	2	3	1	112.5	157.5	2.40795562589532	2.08500931166717	0.2	0	0	0	135.384499950102	135.484486516099	0.0999865659978241	0.200022869277745
20615.25	100	133	0	133	1	2	0	1	2	3	2	157.5	22.5	-2.65740228186207	-0.544053915674931	0.2	0	0	0	135.684508654056	135.784481079318	0.0999724252615124	0.200022137956694
20690.25	100	134	0	134	1	2	0	1	2	3	2	67.5	112.5	0.915348728664402	1.4959092945863	0.2	0	0	0	135.98450541147	136.084484175546	0.0999787640757859	0.20002433215268
20765.25	100	135	0	135	1	2	0	1	2	3	1	22.5	157.5	2.54020014736028	2.01503603157841	0.2	0	0	0	136.284540202934	136.384514578618	0.0999743756838143	0.2000560273882
22173.5	100	136	1	0	1	1	90	1	1	3	1	22.5	67.5	2.97572534291769	-1.95580944450265	0.2	0	0	0	141.917996343225	142.017982421676	0.0999860784504563	-1
22248.5	100	137	1	1	1	1	90	1	1	3	2	157.5	112.5	1.46829783383512	-1.92808544296686	0.2	0	0	0	142.218052346259	142.317986493465	0.0999341472052038	0.200069924583659
22323.5	100	138	1	2	1	1	90	1	1	3	1	112.5	67.5	2.49870582547647	0.484061150054509	0.2	0	0	0	142.518004974118	142.618016408756	0.100011434638873	0.200018480652943
22398.5	100	139	1	3	1	1	90	1	1	3	1	112.5	157.5	1.94752911681123	-0.130274617384042	0.2	0	0	0	142.818036596291	142.918022674741	0.0999860784504563	0.200020187534392
22473.5	100	140	1	4	1	1	90	1	1	0	1	112.5	157.5	3.03393008259649	1.63215432306013	0.2	0	0	0	143.118033109698	143.218016750179	0.0999836404807866	0.200010434957221
22548.5	100	141	1	5	1	1	90	1	1	0	2	67.5	112.5	1.15381923468842	-3.04695733431409	0.2	0	0	0	143.418033524184	143.518027404556	0.0999938803724945	0.200016774004325
22623.5	100	142	1	6	1	1	90	1	1	0	2	157.5	112.5	1.76340098065569	2.71437654193815	0.2	0	0	0	143.718070510076	143.81805024948	0.0999797394033521	0.200043105520308
22698.5	100	143	1	7	1	1	90	1	1	0	1	112.5	67.5	0.0251719048843571	-1.37882292800624	0.2	0	0	0	144.01807555696	144.118057490792	0.0999819338321686	0.200025307480246
22773.5	100	144	1	8	1	1	90	1	1	0	2	157.5	112.5	1.12109663300627	-0.0133064856807152	0.2	0	0	0	144.318065731553	144.418065463193	0.0999997316394001	0.200008240761235
22848.5	100	145	1	9	1	1	90	1	1	0	1	112.5	157.5	2.7499275057683	-2.97561767223393	0.2	0	0	0	144.618077117484	144.718080018647	0.100002901162952	0.200011654291302
22923.5	100	146	1	10	1	1	90	1	1	0	2	157.5	112.5	2.81446974350231	-0.784861039481756	0.2	0	0	0	144.91810191283	145.01808140846	0.0999794956296682	0.20002189418301
22998.5	100	147	1	11	1	1	90	1	1	0	2	157.5	22.5	2.51604797461013	0.0393295135297822	0.2	0	0	0	145.21808843012	145.318066950422	0.099978520302102	0.200007021659985
23073.5	100	148	1	12	1	1	90	1	1	0	1	112.5	67.5	1.10409103366722	2.80332050461601	0.2	0	0	0	145.518120052293	145.618077117484	0.0999570651911199	0.200053101871163
23148.5	100	149	1	13	1	1	90	1	1	0	2	157.5	22.5	-0.0478238214520212	-1.93889157202183	0.2	0	0	0	145.818125830498	145.918087771861	0.09996194136329	0.20004871301353
23223.5	100	150	1	14	1	1	90	1	1	0	2	67.5	22.5	-0.519150922718596	-2.33802579066807	0.2	0	0	0	146.118128926959	146.21811573673	0.099986809771508	0.200041155098006
23298.5	100	151	1	15	1	1	90	1	1	0	2	67.5	22.5	-0.682125339895407	2.29598511908257	0.2	0	0	0	146.418118613772	146.518127122661	0.100008508889005	0.200002877041698
23373.5	100	152	1	16	1	1	90	1	1	0	1	112.5	157.5	2.84188112728153	2.64668884263242	0.2	0	0	0	146.718150723493	146.818131438224	0.0999807147309184	0.200023600831628
23448.5	100	153	1	17	1	1	90	1	1	0	1	22.5	67.5	1.04461930832044	-0.0166032974371633	0.2	0	0	0	147.018147724681	147.118134046905	0.0999863222241402	0.200016286456957
23523.5	100	154	1	18	1	1	90	1	1	0	2	157.5	112.5	1.87718629227822	0.102752624321426	0.2	0	0	0	147.318147407612	147.418126903242	0.0999794956296682	0.200013360707089
23598.5	100	155	1	19	1	1	90	1	1	0	1	112.5	157.5	1.04749640024331	2.39193133677622	0.2	0	0	0	147.61815391737	147.718137557851	0.0999836404807866	0.200027014128864
23673.5	100	156	1	20	1	1	90	1	1	3	1	112.5	67.5	-2.50884139197337	-0.243556634497777	0.2	0	0	0	147.918161158683	148.018168936018	0.100007777335122	0.200023600831628
23748.5	100	157	1	21	1	1	90	1	1	3	1	112.5	157.5	-0.326527053070023	-0.311057057866272	0.2	0	0	0	148.218188636005	148.3181727638	0.0999841277953237	0.200019699987024
23823.5	100	158	1	22	1	1	90	1	1	3	2	67.5	112.5	-0.942847163847752	-0.421632814673388	0.2	0	0	0	148.51818027324	148.618163913721	0.0999836404807866	0.200007509440184
23898.5	100	159	1	23	1	1	90	1	1	1	-1	90	45	2.94305143546974	-1.61703941526739	0.2	0	0	0	148.818194341147	148.918179200497	0.0999848593492061	0.2000304274261
23973.5	100	160	1	24	1	1	90	1	1	3	1	22.5	157.5	1.17990030572024	-1.41600250343909	0.2	0	0	0	149.118204264203	149.218192780623	0.099988516420126	0.200025063706562
24048.5	100	161	1	25	1	1	90	1	1	3	2	157.5	112.5	-0.842116220634859	-0.837683245237995	0.2	0	0	0	149.418207116658	149.518184661865	0.0999775452073663	0.200014336034656
24123.5	100	162	1	26	1	1	90	1	1	3	1	22.5	67.5	0.078155003759997	-2.72788574789429	0.2	0	0	0	149.718237275956	149.818196047796	0.0999587718397379	0.200052614090964
24198.5	100	163	1	27	1	1	90	1	1	3	2	67.5	22.5	2.46732196110737	-0.23044975465359	0.2	0	0	0	150.018220867496	150.118197925156	0.0999770576599985	0.200024819700047
24273.5	100	164	1	28	1	1	90	1	1	0	2	67.5	112.5	0.176372486824734	1.7577297085682	0.2	0	0	0	150.318221525755	150.418208091985	0.0999865662306547	0.200023600598797
24348.5	100	165	1	29	1	1	90	1	1	0	2	157.5	22.5	1.29685758360242	2.33127804683013	0.2	0	0	0	150.618234862108	150.718221672112	0.0999868100043386	0.200026770122349
24423.5	100	166	1	30	1	1	90	1	1	0	2	157.5	22.5	-0.866096398304173	-2.35024843736478	0.2	0	0	0	150.918243566295	151.018249880988	0.100006314693019	0.20002189418301
24498.5	100	167	1	31	1	1	90	1	1	0	1	22.5	67.5	-0.461998529668601	-0.853053421476381	0.2	0	0	0	151.218271774938	151.318241761997	0.0999699870590121	0.200021893950179
24573.5	100	168	1	32	1	1	90	1	1	0	1	22.5	157.5	1.67437695983486	2.32452216734496	0.2	0	0	0	151.518256829353	151.61824022606	0.0999833967071027	0.200015067355707
24648.5	100	169	1	33	1	1	90	1	1	0	1	22.5	67.5	-1.89085224471694	2.86562160508473	0.2	0	0	0	151.818266021088	151.918253806187	0.0999877850990742	0.200025795027614
24723.5	100	170	1	34	1	1	90	1	1	0	2	67.5	22.5	1.104293314347	-1.15463154663829	0.2	0	0	0	152.118274237495	152.218259340618	0.09998510312289	0.200020431308076
24798.5	100	171	1	35	1	1	90	1	1	0	2	67.5	112.5	2.14341574370439	-2.02259169715602	0.2	0	0	0	152.418281966122	152.518270482775	0.0999885166529566	0.200022625504062
24873.5	100	172	1	36	1	1	90	1	1	0	1	112.5	157.5	3.11134050852855	2.13608490097119	0.2	0	0	0	152.718296034029	152.818272360135	0.0999763261061162	0.20002555125393
24948.5	100	173	1	37	1	1	90	1	1	0	1	112.5	157.5	0.180512355037795	-1.28489075025265	0.2	0	0	0	153.018306688638	153.118283989839	0.0999773012008518	0.200034328503534
25023.5	100	174	1	38	1	1	90	1	1	0	2	157.5	22.5	0.715806899511352	0.987508992280168	0.2	0	0	0	153.318327582907	153.418287086301	0.0999595033936203	0.200043593067676
25098.5	100	175	1	39	1	1	90	1	1	0	2	67.5	22.5	3.1036202601206	2.67078855154228	0.2	0	0	0	153.618312393781	153.718302860623	0.0999904668424278	0.200025307480246
25173.5	100	176	1	40	1	1	90	1	1	0	2	157.5	112.5	1.84382721174614	-1.55922295561044	0.2	0	0	0	153.91832499858	154.018328631297	0.100003632716835	0.200022137956694
25248.5	100	177	1	41	1	1	90	1	1	0	2	157.5	112.5	2.31937953106802	-1.28561591810847	0.2	0	0	0	154.218354914105	154.318334653508	0.0999797394033521	0.200026282807812
25323.5	100	178	1	42	1	1	90	1	1	0	2	157.5	112.5	0.161634056550688	0.436608236542882	0.2	0	0	0	154.518362886738	154.618344576564	0.099981689825654	0.200028233230114
25398.5	100	179	1	43	1	1	90	1	1	0	2	67.5	22.5	-2.30988038462734	-2.61093198571623	0.2	0	0	0	154.818368421169	154.918342065299	0.0999736441299319	0.200023844605312
25473.5	100	180	1	44	1	1	90	1	1	0	2	67.5	112.5	2.05490404746958	0.0389908260536607	0.2	0	0	0	155.118367129005	155.218354182551	0.0999870535451919	0.200025063706562
25548.5	100	181	1	45	1	1	90	1	1	0	1	112.5	67.5	-2.54800652322069	0.478825550519842	0.2	0	0	0	155.418366324389	155.51834655134	0.09998022695072	0.20001214183867
25623.5	100	182	1	46	1	1	90	1	1	0	1	112.5	67.5	1.33695012786963	-0.427314707928772	0.2	0	0	0	155.718369420851	155.818354767747	0.0999853468965739	0.200022869510576
25698.5	100	183	1	47	1	1	90	1	1	0	1	112.5	157.5	-1.3095321695355	1.51276439784066	0.2	0	0	0	156.018382269423	156.118361277506	0.0999790080823004	0.200027501676232
25773.5	100	184	1	48	1	1	90	1	1	0	1	22.5	67.5	1.93634882155389	1.04729196486517	0.2	0	0	0	156.318409746746	156.418366811937	0.0999570651911199	0.200048469239846
25848.5	100	185	1	49	1	1	90	1	1	0	1	22.5	157.5	0.888486609350909	0.507820401075235	0.2	0	0	0	156.618398702238	156.718376734992	0.0999780327547342	0.200031890301034
25923.5	100	186	1	50	1	1	90	1	1	0	1	112.5	157.5	0.0684994090128077	1.98531590586319	0.2	0	0	0	156.918401798699	157.018415915314	0.100014116615057	0.200025063706562
25998.5	100	187	1	51	1	1	90	1	1	0	1	22.5	157.5	-0.128802632742339	-2.24312049972268	0.2	0	0	0	157.218437809264	157.318398775533	0.0999609662685543	0.200021893950179
26073.5	100	188	1	52	1	1	90	1	1	0	1	112.5	67.5	-1.26494095733887	-2.02092254722001	0.2	0	0	0	157.518421644811	157.618408210808	0.0999865659978241	0.200022869277745
26148.5	100	189	1	53	1	1	90	1	1	0	2	67.5	112.5	3.13611740493645	-1.36004590790878	0.2	0	0	0	157.818430592539	157.918414720567	0.0999841280281544	0.200022381730378
26223.5	100	190	1	54	1	1	90	1	1	0	1	22.5	157.5	0.35390036157951	-2.04131237051082	0.2	0	0	0	158.118439296493	158.218423912302	0.0999846158083528	0.200024575926363
26298.5	100	191	1	55	1	1	90	1	1	0	1	22.5	67.5	2.8878143886422	2.49807110129457	0.2	0	0	0	158.418445074931	158.518430421827	0.0999853468965739	0.200021162629128
26373.5	100	192	1	56	1	1	90	1	1	0	2	157.5	22.5	-2.39057499778433	2.20292407703553	0.2	0	0	0	158.7184788913	158.818433274515	0.0999543832149357	0.200048469472677
26448.5	100	193	1	57	1	1	90	1	1	0	2	67.5	112.5	-2.98637518127699	2.48316130535939	0.2	0	0	0	159.018479305785	159.118464896688	0.0999855909030885	0.200046031270176
26523.5	100	194	1	58	1	1	90	1	1	0	1	112.5	67.5	-2.04076424918399	-0.682875738234965	0.2	0	0	0	159.318488497287	159.418474819744	0.0999863224569708	0.200023600598797
26598.5	100	195	1	59	1	1	90	1	1	0	2	67.5	112.5	-1.13359482845354	2.20526565743704	0.2	0	0	0	159.618497689022	159.718479135074	0.0999814460519701	0.200022869277745
26673.5	100	196	1	60	1	1	90	1	1	0	1	112.5	157.5	3.05022558820911	2.72913665054005	0.2	0	0	0	159.91850663675	160.018488814356	0.0999821776058525	0.200027501676232
26748.5	100	197	1	61	1	1	90	1	1	0	1	112.5	67.5	-2.33631287262114	1.68606373669288	0.2	0	0	0	160.218497055117	160.318476306973	0.0999792518559843	0.200008240761235
26823.5	100	198	1	62	1	1	90	1	1	0	1	22.5	67.5	0.134679786862888	2.16833142301029	0.2	0	0	0	160.51850161422	160.618506466039	0.100004851818085	0.200025307247415
26898.5	100	199	1	63	1	1	90	1	1	0	2	67.5	22.5	2.23824219381196	1.16457680225127	0.2	0	0	0	160.818512512604	160.918497371953	0.0999848593492061	0.20000604656525
26973.5	100	200	1	64	1	1	90	1	1	0	2	157.5	22.5	-1.22907278912804	-3.0638533565296	0.2	0	0	0	161.118519997457	161.21850266261	0.0999826651532203	0.200022625504062
27048.5	100	201	1	65	1	1	90	1	1	0	1	22.5	67.5	-1.31194418611264	-1.08067822263053	0.2	0	0	0	161.418528457638	161.518512585666	0.0999841280281544	0.200025795027614
27123.5	100	202	1	66	1	1	90	1	1	0	2	67.5	22.5	-1.80654220029475	-1.51867506231162	0.2	0	0	0	161.718539112248	161.818513243925	0.0999741316772997	0.200026526581496
27198.5	100	203	1	67	1	1	90	1	1	0	1	22.5	67.5	-2.80062873898419	0.187619518339869	0.2	0	0	0	162.018550985726	162.118526824284	0.0999758385587484	0.20003774180077
27273.5	100	204	1	68	1	1	90	1	1	0	1	112.5	67.5	0.515506252210693	0.395232814544377	0.2	0	0	0	162.318548230687	162.418529189192	0.0999809585046023	0.200021406402811
27348.5	100	205	1	69	1	1	90	1	1	0	2	157.5	112.5	0.388638999428406	2.62357242413538	0.2	0	0	0	162.618560591945	162.71854398842	0.099983396474272	0.200031402753666
27423.75	100	206	1	70	1	1	90	1	1	0	1	112.5	67.5	-1.78406663055183	-1.50897875421924	0.2	0	0	0	162.918580998667	163.018564882921	0.0999838842544705	0.200037010246888
27498.75	100	207	1	71	1	1	90	1	1	0	1	22.5	67.5	0.38404671566102	2.99392135129029	0.2	0	0	0	163.218591653276	163.318553106859	0.0999614535830915	0.20002677035518
27573.75	100	208	1	72	1	1	90	1	1	0	1	112.5	157.5	0.0115782140485505	-2.18496553139329	0.2	0	0	0	163.518609378254	163.618584729033	0.0999753507785499	0.200056271394715
27648.75	100	209	1	73	1	1	90	1	1	0	2	67.5	22.5	1.22370808342044	1.79126658750404	0.2	0	0	0	163.818595895544	163.918578072917	0.0999821773730218	0.200011166511104
27723.75	100	210	1	74	1	1	90	1	1	0	1	22.5	157.5	-1.60953700406732	-1.15534593980443	0.2	0	0	0	164.118603136623	164.218608232215	0.100005095591769	0.200025063706562
27798.75	100	211	1	75	1	1	90	1	1	0	1	22.5	157.5	-1.7138509628518	0.394372698259752	0.2	0	0	0	164.418608427281	164.518611328676	0.100002901395783	0.200000195065513
27873.75	100	212	1	76	1	1	90	1	1	0	2	157.5	22.5	2.36446725856825	0.737165284999125	0.2	0	0	0	164.71861615614	164.818603697466	0.0999875413253903	0.200004827463999
27948.75	100	213	1	77	1	1	90	1	1	0	2	157.5	112.5	1.17440943588165	-2.83513543884178	0.2	0	0	0	165.018616082845	165.118600942427	0.0999848595820367	0.200012385379523
28023.75	100	214	1	78	1	1	90	1	1	0	2	157.5	112.5	1.61870797529034	0.493073421540925	0.2	0	0	0	165.318632344948	165.418639634969	0.100007290020585	0.200031402520835
28098.75	100	215	1	79	1	1	90	1	1	0	1	22.5	157.5	-0.983161602734891	1.00479198945249	0.2	0	0	0	165.61866274802	165.718644194072	0.0999814460519701	0.200023113051429
28173.75	100	216	1	80	1	1	90	1	1	0	1	22.5	67.5	0.52189507275087	-1.50780706726919	0.2	0	0	0	165.91865267884	166.018631930463	0.0999792516231537	0.20000848476775
28248.75	100	217	1	81	1	1	90	1	1	0	2	67.5	112.5	-0.758088767606399	-2.55422005657707	0.2	0	0	0	166.218658457045	166.31864307262	0.0999846155755222	0.200026526581496
28323.75	100	218	1	82	1	1	90	1	1	0	1	22.5	67.5	1.13219861318382	0.658775721126277	0.2	0	0	0	166.518670574296	166.618645437527	0.0999748632311821	0.200027501676232
28398.75	100	219	1	83	1	1	90	1	1	0	2	157.5	22.5	2.86552597050493	-1.50710239856764	0.2	0	0	0	166.818697320297	166.918656335911	0.0999590156134218	0.200051882769912
28473.75	100	220	1	84	1	1	90	1	1	3	2	157.5	22.5	-0.0775228195043924	-2.03200879245965	0.2	0	0	0	167.118682374712	167.218662601896	0.0999802271835506	0.200026038801298
28548.75	100	221	1	85	1	1	90	1	1	3	1	22.5	157.5	-0.27812463628555	-1.62778984111727	0.2	0	0	0	167.418688396923	167.518697149586	0.100008752662688	0.200025795027614
28623.75	100	222	1	86	1	1	90	1	1	3	1	112.5	157.5	1.26386797694673	0.449098265416662	0.2	0	0	0	167.718706609448	167.818677327828	0.0999707183800638	0.200009459862486
28698.75	100	223	1	87	1	1	90	1	1	2	-1	135	90	-0.0246900654647164	-0.195633401085895	0.2	0	0	0	168.018725065747	168.118694077712	0.0999690119642764	0.200047737918794
28773.75	100	224	1	88	1	1	90	1	1	3	2	67.5	22.5	-0.833027796954644	-0.732318931936849	0.2	0	0	0	168.318712314591	168.418715947308	0.100003632716835	0.200018236879259
28848.75	100	225	1	89	1	1	90	1	1	3	1	22.5	67.5	-3.00156292103695	-2.40208875429656	0.2	0	0	0	168.618724431843	168.718703439925	0.0999790080823004	0.200008484534919
28923.75	100	226	1	90	1	1	90	1	1	3	2	67.5	112.5	2.0037731824274	-1.76383721880445	0.2	0	0	0	168.918734354898	169.018731892575	0.099997537676245	0.200030914973468
28998.75	100	227	1	91	1	1	90	1	1	3	2	157.5	112.5	0.059926984496244	0.714987583827374	0.2	0	0	0	169.218750860775	169.318731331732	0.0999804709572345	0.200018968200311
29073.75	100	228	1	92	1	1	90	1	1	0	2	67.5	112.5	2.18486758103231	-0.62767972301335	0.2	0	0	0	169.518761515385	169.618747350061	0.0999858346767724	0.200030183652416
29148.75	100	229	1	93	1	1	90	1	1	0	2	157.5	22.5	-0.981890341005956	-1.99195623744384	0.2	0	0	0	169.818756565917	169.918727040756	0.0999704748392105	0.200009215855971
29223.75	100	230	1	94	1	1	90	1	1	0	1	112.5	157.5	2.41357236635432	1.99526181908661	0.2	0	0	0	170.118750885362	170.218730868539	0.099979983177036	0.200023844605312
29298.75	100	231	1	95	1	1	90	1	1	0	1	22.5	157.5	1.93018618312979	0.294304685525404	0.2	0	0	0	170.418757394888	170.518750300165	0.0999929052777588	0.200026526348665
29373.75	100	232	1	96	1	1	90	1	1	0	2	157.5	112.5	-1.67501114541607	-0.97333627640231	0.2	0	0	0	170.718773900997	170.818751202198	0.0999773012008518	0.200023600831628
29448.75	100	233	1	97	1	1	90	1	1	0	1	112.5	157.5	1.74958654766625	2.96259749605308	0.2	0	0	0	171.018789187772	171.118766488973	0.0999773012008518	0.200037985574454
29523.75	100	234	1	98	1	1	90	1	1	0	1	22.5	157.5	-2.87583699799425	0.235628487958173	0.2	0	0	0	171.318817152642	171.418775680708	0.099958528066054	0.200050663668662
29598.75	100	235	1	99	1	1	90	1	1	0	1	22.5	67.5	0.908743631903233	-2.18331436044656	0.2	0	0	0	171.618800256634	171.718785116216	0.0999848595820367	0.200024575926363
29673.75	100	236	1	100	1	1	90	1	1	0	1	22.5	157.5	1.75997383103742	-0.13237905176793	0.2	0	0	0	171.918809935916	172.018785530701	0.0999755947850645	0.200024819700047
29748.75	100	237	1	101	1	1	90	1	1	0	2	67.5	112.5	1.3907406718447	-1.47706420174595	0.2	0	0	0	172.218817421002	172.318792040227	0.0999746192246675	0.200031890301034
29823.75	100	238	1	102	1	1	90	1	1	0	2	67.5	112.5	-1.31408224782928	2.1710560983415	0.2	0	0	0	172.518829538254	172.61880830233	0.0999787640757859	0.200037498027086
29898.75	100	239	1	103	1	1	90	1	1	0	2	157.5	112.5	-0.930354773950692	1.75494297236956	0.2	0	0	0	172.818839217536	172.918823833112	0.0999846155755222	0.200030915206298
29973.75	100	240	1	104	1	1	90	1	1	0	1	112.5	67.5	-1.99838412581135	-2.66863911042821	0.2	0	0	0	173.118844508193	173.21882985509	0.0999853468965739	0.20002067508176
30048.75	100	241	1	105	1	1	90	1	1	0	2	67.5	112.5	2.49484310339355	-2.27964110052085	0.2	0	0	0	173.418846385553	173.518860502169	0.100014116615057	0.200016530463472
30123.75	100	242	1	106	1	1	90	1	1	0	2	157.5	22.5	0.574409046096609	1.08911765827923	0.2	0	0	0	173.718884834321	173.818862379296	0.0999775449745357	0.20002433215268
30198.75	100	243	1	107	1	1	90	1	1	0	2	67.5	22.5	1.76952661540289	0.0202729420044077	0.2	0	0	0	174.018874033587	174.118849140592	0.099975107004866	0.200011654291302
30273.75	100	244	1	108	1	1	90	1	1	0	1	112.5	157.5	-0.0621153126600591	-1.18169589306593	0.2	0	0	0	174.318879324244	174.418863696046	0.0999843718018383	0.200030183652416
30348.75	100	245	1	109	1	1	90	1	1	0	1	112.5	67.5	-0.423669137464258	-0.0744933189146453	0.2	0	0	0	174.618882908253	174.718891660916	0.100008752662688	0.200019212206826
30423.75	100	246	1	110	1	1	90	1	1	0	1	112.5	67.5	2.77788328055746	-2.26978399058876	0.2	0	0	0	174.918912092224	175.01889134408	0.0999792518559843	0.200020431308076
30498.75	100	247	1	111	1	1	90	1	1	0	1	22.5	157.5	2.73813997478568	-0.196539166733467	0.2	0	0	0	175.21891372581	175.318897122284	0.099983396474272	0.200022381730378
30573.75	100	248	1	112	1	1	90	1	1	0	1	22.5	157.5	1.52054158727087	0.422823310888019	0.2	0	0	0	175.518914140062	175.618890710175	0.0999765701126307	0.200017017778009
30648.75	100	249	1	113	1	1	90	1	1	0	1	22.5	157.5	0.945154464716638	2.73119635301341	0.2	0	0	0	175.818938204087	175.918901120778	0.0999629166908562	0.20004749391228
30723.75	100	250	1	114	1	1	90	1	1	0	2	157.5	22.5	2.4503946104165	0.706413504514189	0.2	0	0	0	176.118926184485	176.21891372581	0.0999875413253903	0.200025063706562
30798.75	100	251	1	115	1	1	90	1	1	0	2	67.5	22.5	-1.11168009698736	0.479133607446427	0.2	0	0	0	176.418935132213	176.518917309586	0.0999821773730218	0.200021406402811
30873.75	100	252	1	116	1	1	90	1	1	0	2	157.5	22.5	-1.13252058508246	-2.90049530712556	0.2	0	0	0	176.718938472448	176.818924307125	0.0999858346767724	0.200021162861958
30948.75	100	253	1	117	1	1	90	1	1	0	2	67.5	112.5	1.8052002783957	0.029237491456779	0.2	0	0	0	177.018963267794	177.11894495762	0.099981689825654	0.20003896066919
31023.75	100	254	1	118	1	1	90	1	1	0	1	22.5	67.5	1.09714507567826	0.39342502679127	0.2	0	0	0	177.318968070904	177.418955856003	0.0999877850990742	0.20002311328426
31098.75	100	255	1	119	1	1	90	1	1	0	2	157.5	112.5	1.66335769673822	1.03232807697294	0.2	0	0	0	177.618976043537	177.718958464684	0.0999824211467057	0.200020187534392
31173.75	100	256	1	120	1	1	90	1	1	0	2	67.5	22.5	1.34927442862312	-1.17326689262016	0.2	0	0	0	177.918993768282	178.018954002997	0.099960234714672	0.20003530359827
31248.75	100	257	1	121	1	1	90	1	1	0	1	112.5	67.5	-0.619928231321242	2.78280532072829	0.2	0	0	0	178.219006373314	178.318965388928	0.0999590156134218	0.20005237031728
31323.75	100	258	1	122	1	1	90	1	1	0	2	67.5	22.5	-2.40629853013595	1.31699220336256	0.2	0	0	0	178.519012639299	178.61897506821	0.0999624289106578	0.200047250371426
31398.75	100	259	1	123	1	1	90	1	1	0	2	67.5	22.5	1.71701968308702	1.39360426479349	0.2	0	0	0	178.818996718386	178.918990598759	0.0999938803724945	0.200021650176495
31473.75	100	260	1	124	1	1	90	1	1	3	2	67.5	22.5	2.32573438285603	3.00081134111297	0.2	0	0	0	179.119003228145	179.218985893298	0.0999826651532203	0.200012629386038
31548.75	100	261	1	125	1	1	90	1	1	3	2	67.5	112.5	0.196409235635204	2.86793483179753	0.2	0	0	0	179.419014126528	179.519002399174	0.0999882726464421	0.200028233230114
31623.75	100	262	1	126	1	1	90	1	1	3	1	22.5	157.5	-1.14249506924287	-2.32845220012632	0.2	0	0	0	179.719024049584	179.819013297558	0.0999892479740083	0.200021650409326
31698.75	100	263	1	127	1	1	90	1	1	3	2	157.5	22.5	2.17257211234225	2.50244893770829	0.2	0	0	0	180.019036166836	180.119015662465	0.0999794956296682	0.200022869277745
32978	100	264	2	0	2	2	0	2	1	3	2	157.5	112.5	2.1039384866721	-0.55642127222423	0.216666666666667	0	0	0	185.135824141093	185.235808269121	0.0999841280281544	-1
33069.5	100	265	2	1	2	2	0	2	1	3	1	22.5	157.5	-2.25805649191954	1.81120700168197	0.266666666666667	0	0	0	185.502525989432	185.602492806967	0.09996681753546	0.266717720311135
33136.25	100	266	2	2	2	2	0	2	1	3	1	112.5	67.5	0.660845380992323	-1.22647477236227	0.166666666666667	0	0	0	185.7691812946	185.869158839807	0.0999775452073663	0.1666884876322
33236.25	100	267	2	3	2	2	0	2	1	3	1	112.5	157.5	-1.83385469277313	-0.081188442144696	0.3	0	0	0	186.169212160865	186.269198483089	0.0999863222241402	0.300053321057931
33294.5	100	268	2	4	2	2	0	2	1	0	2	67.5	112.5	1.83564459637132	1.8133979979438	0.133333333333333	0	0	0	186.402550882427	186.502537692199	0.099986809771508	0.133352399338037
33353	100	269	2	5	2	2	0	2	1	0	2	67.5	22.5	-3.05953201914477	-2.58431860102278	0.133333333333333	0	0	0	186.635875706794	186.735870806267	0.0999950994737446	0.133338014595211
33407	100	270	2	6	2	2	0	2	1	0	2	157.5	22.5	-0.567641447229685	-1.59939905623526	0.116666666666667	0	0	0	186.852564669913	186.952546603512	0.0999819335993379	0.116693863645196
33457	100	271	2	7	2	2	0	2	1	0	1	22.5	157.5	2.38529322768694	2.09112566601094	0.1	0	0	0	187.052567546722	187.152548017679	0.0999804709572345	0.100020943209529
33511.25	100	272	2	8	2	2	0	2	1	0	2	67.5	22.5	-2.92024386970022	2.58316809036988	0.116666666666667	0	0	0	187.269215793582	187.369199434062	0.0999836404807866	0.116667775902897
33594.5	100	273	2	9	2	2	0	2	1	0	1	112.5	67.5	-1.40483736498631	2.7586863628261	0.233333333333333	0	0	0	187.602585454471	187.702556904405	0.0999714499339461	0.233386020408943
33690.5	100	274	2	10	2	2	0	2	1	0	2	67.5	22.5	1.03327627447312	2.41889358309863	0.283333333333333	0	0	0	187.985905610025	188.085905098123	0.0999994880985469	0.283348705619574
33748.75	100	275	2	11	2	2	0	2	1	0	1	112.5	157.5	-1.79810038743778	-1.92121026167324	0.133333333333333	0	0	0	188.219247257337	188.319225533865	0.0999782765284181	0.133342159213498
33828	100	276	2	12	2	2	0	2	1	0	2	157.5	22.5	2.92612775758579	-1.50332408940507	0.216666666666667	0	0	0	188.535924249329	188.635900819208	0.0999765698798001	0.216698715463281
33915.5	100	277	2	13	2	2	0	2	1	0	2	157.5	22.5	-1.27384765852805	-1.19644821461924	0.25	0	0	0	188.885923920199	188.985927552916	0.100003632716835	0.250023100990802
33982	100	278	2	14	2	2	0	2	1	0	1	112.5	157.5	-0.0677419271325115	-2.4684415195372	0.166666666666667	0	0	0	189.152628718643	189.252611871343	0.0999831527005881	0.166701165726408
34082	100	279	2	15	2	2	0	2	1	0	2	67.5	22.5	-0.576262027860983	0.455908574617368	0.3	0	0	0	189.552615455352	189.652594219428	0.0999787640757859	0.300003584008664
34173.75	100	280	2	16	2	2	0	2	1	0	1	112.5	157.5	0.585768817740132	-0.905143415161206	0.266666666666667	0	0	0	189.919288534205	190.019272174686	0.0999836404807866	0.266694314777851
34223.75	100	281	2	17	2	2	0	2	1	0	1	22.5	67.5	-2.51782264885628	-2.56084409393495	0.1	0	0	0	190.119319936959	190.219276270596	0.0999563336372375	0.100047762272879
34323.75	100	282	2	18	2	2	0	2	1	0	2	157.5	112.5	0.398119695130237	1.52041020160669	0.3	0	0	0	190.51930204127	190.61929982272	0.0999977814499289	0.300025770673528
34423.75	100	283	2	19	2	2	0	2	1	0	1	22.5	157.5	0.275028169935837	-1.50239189114543	0.3	0	0	0	190.919318279019	191.019298505969	0.09998022695072	0.300018456298858
34515.5	100	284	2	20	2	2	0	2	1	0	2	157.5	112.5	-2.3549985563775	-0.795106033463925	0.266666666666667	0	0	0	191.286002085544	191.385989870643	0.0999877850990742	0.266703579574823
34615.5	100	285	2	21	2	2	0	2	1	0	1	112.5	67.5	-1.75902693421501	-0.367522859061798	0.3	0	0	0	191.686017104192	191.786000013119	0.0999829089269042	0.300027233548462
34711.25	100	286	2	22	2	2	0	2	1	0	2	157.5	112.5	-2.85551442817688	1.04022284110017	0.283333333333333	0	0	0	192.069366516778	192.169348938158	0.0999824213795364	0.283366503659636
34807.25	100	287	2	23	2	2	0	2	1	0	1	22.5	157.5	-0.104272761399762	2.30657525056762	0.283333333333333	0	0	0	192.452702275943	192.552706640214	0.100004364270717	0.283353337785229
34869.75	100	288	2	24	2	2	0	2	1	0	2	67.5	22.5	-1.63799434321143	2.78113209184387	0.15	0	0	0	192.702734885504	192.802699021064	0.0999641355592757	0.150028245290741
34936.25	100	289	2	25	2	2	0	2	1	0	1	112.5	67.5	0.110414829909223	-0.703315657283473	0.166666666666667	0	0	0	192.969405306736	193.069363591028	0.0999582842923701	0.166706285672262
35011.25	100	290	2	26	2	2	0	2	1	0	1	112.5	67.5	0.672792236282917	2.13786918466807	0.2	0	0	0	193.269409134751	193.369371319888	0.0999621851369739	0.200045543722808
35073.75	100	291	2	27	2	2	0	2	1	0	2	67.5	112.5	0.553245361109687	1.759261255685	0.15	0	0	0	193.519393957453	193.619375891285	0.0999819338321686	0.150022637564689
35128	100	292	2	28	2	2	0	2	1	0	1	112.5	67.5	-1.65715074455012	0.628693098389919	0.116666666666667	0	0	0	193.736091941595	193.836072656093	0.0999807144980878	0.11671605031006
35186.25	100	293	2	29	2	2	0	2	1	0	1	22.5	157.5	0.463664434593593	-0.537973377233775	0.133333333333333	0	0	0	193.969433832448	194.069414547179	0.0999807147309184	0.133361176354811
35261.25	100	294	2	30	2	2	0	2	1	0	2	157.5	22.5	0.955221025158986	-2.98346313784456	0.2	0	0	0	194.269438635558	194.369425445562	0.0999868100043386	0.200024088378996
35353	100	295	2	31	2	2	0	2	1	0	1	22.5	157.5	0.365832321459325	-0.648712028116235	0.266666666666667	0	0	0	194.636091722175	194.736067804275	0.0999760820996016	0.26666627661325
35428	100	296	2	32	2	2	0	2	1	0	1	112.5	157.5	-3.0583590430062	3.03730600373323	0.2	0	0	0	194.936120174592	195.036086017033	0.0999658424407244	0.20005237031728
35498.75	100	297	2	33	2	2	0	2	1	0	2	67.5	22.5	-3.11039286895808	-1.38037278296167	0.183333333333333	0	0	0	195.219442548696	195.319445206318	0.100002657622099	0.183356531662866
35553	100	298	2	34	2	2	0	2	1	0	2	67.5	112.5	-1.32292555366418	2.98567795196161	0.116666666666667	0	0	0	195.436116639525	195.536097597796	0.0999809582717717	0.116671433206648
35653	100	299	2	35	2	2	0	2	1	0	2	157.5	22.5	0.640798880873074	2.03468584249553	0.3	0	0	0	195.836118492298	195.936126026092	0.100007533794269	0.300020894501358
35732.25	100	300	2	36	2	2	0	2	1	0	2	67.5	22.5	-1.42335579344579	1.80954933513447	0.216666666666667	0	0	0	196.15280840639	196.25279984856	0.0999914421699941	0.216682380298153
35782.25	100	301	2	37	2	2	0	2	1	0	2	157.5	112.5	1.56554696737348	2.61786147371546	0.1	0	0	0	196.35280591948	196.45280394447	0.0999980249907821	0.100006070919335
35861.25	100	302	2	38	2	2	0	2	1	0	1	22.5	157.5	2.42411191675015	0.072046610865637	0.216666666666667	0	0	0	196.66949949041	196.769479961367	0.0999804709572345	0.216695545939729
35948.75	100	303	2	39	2	2	0	2	1	0	1	112.5	67.5	1.38045901589875	2.26840170753203	0.25	0	0	0	197.019478193717	197.119472317863	0.0999941241461784	0.249998232349753
36032.25	100	304	2	40	2	2	0	2	1	0	2	157.5	112.5	-2.61420354662663	0.518899513763531	0.233333333333333	0	0	0	197.352833713638	197.452840759885	0.100007046246901	0.233361395774409
36128	100	305	2	41	2	2	0	2	1	3	2	157.5	112.5	0.633168879676088	1.65410639441412	0.283333333333333	0	0	0	197.736201899592	197.83615945233	0.0999575527384877	0.283361139707267
36219.75	100	306	2	42	2	2	0	2	1	3	2	67.5	112.5	2.108671906727	-2.69621312115039	0.266666666666667	0	0	0	198.102857667953	198.20284106466	0.0999833967071027	0.266698215622455
36303	100	307	2	43	2	2	0	2	1	3	1	112.5	157.5	2.53733062313219	-2.66177189235698	0.233333333333333	0	0	0	198.436194170965	198.53617220372	0.0999780327547342	0.233353106305003
36357.25	100	308	2	44	2	2	0	2	1	1	-1	0	135	-2.74363539278792	1.4774518562782	0.116666666666667	0	0	0	198.652872893959	198.752854827559	0.0999819335993379	0.116700690239668
36407.25	100	309	2	45	2	2	0	2	1	3	2	67.5	22.5	0.462502834668049	-2.36209583823753	0.1	0	0	0	198.85287406412	198.952883304562	0.100009240442887	0.100019236560911
36482.25	100	310	2	46	2	2	0	2	1	3	2	157.5	22.5	-1.6232938069013	-0.842795603354496	0.2	1	0.392223838716745	1	199.152886912925	199.252870553406	0.0999836404807866	0.200003608362749
36561.25	100	311	2	47	2	2	0	2	1	3	1	22.5	157.5	0.0889448667816048	-2.87566460814354	0.216666666666667	0	0	0	199.469565124018	199.569540962577	0.0999758385587484	0.216694570612162
36619.75	100	312	2	48	2	2	0	2	1	3	1	112.5	67.5	-0.605788595841446	2.63643553154903	0.133333333333333	0	0	0	199.702885072213	199.80286554317	0.0999804709572345	0.1333441096358
36719.75	100	313	2	49	2	2	0	2	1	0	1	22.5	67.5	2.36356435424757	2.16209776409617	0.3	0	0	0	200.10289716511	200.202883243561	0.0999860784504563	0.300031621940434
36798.75	100	314	2	50	2	2	0	2	1	0	2	157.5	112.5	-2.48099272722738	2.88111930294865	0.216666666666667	0	0	0	200.419576839078	200.519557066029	0.09998022695072	0.216693595517427
36890.5	100	315	2	51	2	2	0	2	1	0	2	157.5	22.5	-2.01667398048089	2.84755978113357	0.266666666666667	0	0	0	200.786249674158	200.886230144883	0.0999804707244039	0.266692608129233
36965.5	100	316	2	52	2	2	0	2	1	0	1	22.5	157.5	1.38387897979957	0.0239311076913249	0.2	0	0	0	201.086279589683	201.186265911907	0.0999863222241402	0.200049444800243
37044.75	100	317	2	53	2	2	0	2	1	0	1	112.5	157.5	1.92172837145781	-0.844719560484007	0.216666666666667	0	0	0	201.402955606347	201.502916816156	0.0999612098094076	0.216689694439992
37136.25	100	318	2	54	2	2	0	2	1	0	2	67.5	22.5	-1.35591311963334	-1.36085324388946	0.266666666666667	0	0	0	201.769609668059	201.869604035979	0.0999943679198623	0.266692851902917
37223.75	100	319	2	55	2	2	0	2	1	0	1	22.5	67.5	3.06350515790651	-0.231692275537028	0.25	0	0	0	202.119649567408	202.219604682177	0.099955114768818	0.25004553142935
37307.25	100	320	2	56	2	2	0	2	1	0	1	22.5	67.5	0.855393851911256	-1.12247264436724	0.233333333333333	0	0	0	202.452973879874	202.552960933652	0.0999870537780225	0.233369197696447
37369.75	100	321	2	57	2	2	0	2	1	0	2	157.5	112.5	1.48457114772993	1.39746272639385	0.15	0	0	0	202.703005757881	202.802982571768	0.0999768138863146	0.150044824229553
37432.25	100	322	2	58	2	2	0	2	1	0	1	22.5	67.5	-2.88558166508132	-1.58017443037299	0.15	0	0	0	202.952995700762	203.052968126023	0.0999724252615124	0.150013128994033
37528	100	323	2	59	2	2	0	2	1	0	1	22.5	67.5	1.40623600678185	2.68160680898235	0.283333333333333	0	0	0	203.336346088676	203.436331679579	0.0999855909030885	0.283377962652594
37615.5	100	324	2	60	2	2	0	2	1	0	2	157.5	112.5	0.324430576307686	0.17456756489907	0.25	0	0	0	203.686346734641	203.786323792301	0.0999770576599985	0.250015055062249
37698.75	100	325	2	61	2	2	0	2	1	0	1	112.5	157.5	-2.62266923961509	-2.387752782274	0.233333333333333	0	0	0	204.019682262326	204.119667365681	0.0999851033557206	0.233358470024541
37765.5	100	326	2	62	2	2	0	2	1	0	1	22.5	157.5	-2.12146367512332	-1.17959184545462	0.166666666666667	0	0	0	204.286376820877	204.386368019274	0.0999911983963102	0.166709455195814
37832.25	100	327	2	63	2	2	0	2	1	0	2	157.5	22.5	-1.48676172351525	-2.03437133160674	0.166666666666667	0	0	0	204.553051143186	204.653023568215	0.0999724250286818	0.166683123912662
37915.5	100	328	2	64	2	2	0	2	1	3	1	112.5	67.5	3.09534356900467	0.604829273020938	0.233333333333333	0	0	0	204.886373261223	204.98635373218	0.0999804709572345	0.233349693007767
38003	100	329	2	65	2	2	0	2	1	3	2	67.5	22.5	-1.26607945212273	1.3703886061066	0.25	0	0	0	205.236383415991	205.336359742098	0.0999763261061162	0.25002968381159
38061.25	100	330	2	66	2	2	0	2	1	3	2	67.5	112.5	0.463711066198985	-1.04881108601081	0.133333333333333	0	0	0	205.469721162226	205.569683591137	0.0999624289106578	0.133361420128495
38140.5	100	331	2	67	2	2	0	2	1	1	-1	0	135	-1.52864215568971	1.89390004854704	0.216666666666667	0	0	0	205.786398154218	205.886380575597	0.0999824213795364	0.216714563081041
38232.25	100	332	2	68	2	2	0	2	1	3	1	22.5	157.5	-0.50212219244654	-2.29266597744458	0.266666666666667	0	0	0	206.153073427267	206.253059993498	0.0999865662306547	0.266692851670086
38332.25	100	333	2	69	2	2	0	2	1	3	1	22.5	67.5	-0.181237637023784	0.571319539589003	0.3	1	0.65883867139928	1	206.553106244188	206.653085495811	0.0999792516231537	0.300046250689775
38403	100	334	2	70	2	2	0	2	1	3	2	157.5	112.5	-3.03268721764515	-2.82161003128303	0.183333333333333	0	0	0	206.836426180089	206.936412746087	0.0999865659978241	0.183340684277937
38465.5	100	335	2	71	2	2	0	2	1	3	1	112.5	157.5	-2.8164596783813	-1.24815160406058	0.15	0	0	0	207.08642855729	207.186439016601	0.100010459311306	0.150015811203048
38549	100	336	2	72	2	2	0	2	1	0	2	157.5	22.5	0.332042367852293	0.793611892403841	0.233333333333333	0	0	0	207.419777006842	207.519762841519	0.0999858346767724	0.233337990241125
38611.5	100	337	2	73	2	2	0	2	1	0	1	22.5	157.5	-2.03956632598795	1.0827431699649	0.15	0	0	0	207.669777433388	207.769787649158	0.100010215770453	0.150014591868967
38678	100	338	2	74	2	2	0	2	1	0	2	157.5	112.5	-0.556149170402669	-0.272585422775615	0.166666666666667	0	0	0	207.936478330987	208.036461971467	0.0999836404807866	0.166690681828186
38744.75	100	339	2	75	2	2	0	2	1	0	1	22.5	67.5	-3.0074819124679	1.72699851459253	0.166666666666667	0	0	0	208.203138512326	208.30311288801	0.0999743756838143	0.166676540859044
38803	100	340	2	76	2	2	0	2	1	0	2	157.5	112.5	0.203338257165089	-0.573378709257106	0.133333333333333	0	0	0	208.436473332811	208.536442100769	0.0999687679577619	0.133360444800928
38869.75	100	341	2	77	2	2	0	2	1	0	2	67.5	112.5	-1.54495897005763	0.519241110939957	0.166666666666667	0	0	0	208.703141803853	208.803126663202	0.0999848593492061	0.166699703084305
38919.75	100	342	2	78	2	2	0	2	1	0	2	67.5	112.5	0.922296966067386	-2.41160665596886	0.1	0	0	0	208.903149556834	209.003132953541	0.0999833967071027	0.100022893631831
38990.5	100	343	2	79	2	2	0	2	1	0	1	22.5	157.5	1.57056407988564	1.28057279760418	0.183333333333333	0	0	0	209.186489485204	209.286459472263	0.0999699870590121	0.183356531662866
39040.5	100	344	2	80	2	2	0	2	1	0	1	112.5	67.5	2.88420099378497	-0.741586321738365	0.1	0	0	0	209.386495287996	209.486477709375	0.0999824213795364	0.100035815732554
39099	100	345	2	81	2	2	0	2	1	0	1	22.5	67.5	2.40230791351668	0.507726025585838	0.133333333333333	0	0	0	209.619831327582	209.719817162259	0.0999858346767724	0.133353618206456
39174	100	346	2	82	2	2	0	2	1	0	2	67.5	22.5	0.718421788914994	-0.0833487719187911	0.2	0	0	0	209.91984027531	210.019820502494	0.0999802271835506	0.200023113051429
39249	100	347	2	83	2	2	0	2	1	0	2	157.5	112.5	0.8819933052372	-1.75198021813485	0.2	0	0	0	210.219849467045	210.319830425549	0.0999809585046023	0.200028964551166
39319.75	100	348	2	84	2	2	0	2	1	0	1	22.5	67.5	3.00116175766544	1.99457701903193	0.183333333333333	0	0	0	210.503213532502	210.603171329014	0.0999577965121716	0.183383106952533
39399	100	349	2	85	2	2	0	2	1	0	2	67.5	112.5	-0.00147235089220743	0.619682513578883	0.216666666666667	0	0	0	210.819886135869	210.919868557248	0.0999824213795364	0.216714806854725
39453	100	350	2	86	2	2	0	2	1	0	1	112.5	157.5	-0.07005104154968	-0.229431283791637	0.116666666666667	0	0	0	211.036536577158	211.136522168061	0.0999855909030885	0.116668019909412
39549	100	351	2	87	2	2	0	2	1	0	2	67.5	112.5	-0.946705503337086	-2.97741364063829	0.283333333333333	0	0	0	211.419882820221	211.519866948249	0.0999841280281544	0.283360652159899
39619.75	100	352	2	88	2	2	0	2	1	0	1	112.5	67.5	-1.08641444838106	-2.6435477917279	0.183333333333333	0	0	0	211.703229575185	211.803209070815	0.0999794956296682	0.183362626936287
39699	100	353	2	89	2	2	0	2	1	0	1	112.5	67.5	-2.67831577865573	1.80279236037171	0.216666666666667	0	0	0	212.019897058606	212.119880455313	0.0999833967071027	0.216687987791374
39769.75	100	354	2	90	2	2	0	2	1	0	2	157.5	112.5	1.6367670746909	-0.345157890519685	0.183333333333333	0	0	0	212.303265512688	212.403242814122	0.0999773014336824	0.183385057374835
39819.75	100	355	2	91	2	2	0	2	1	0	2	157.5	22.5	0.619402536331422	-1.61663500501594	0.1	0	0	0	212.503252542112	212.603223992046	0.0999714499339461	0.100009727990255
39907.25	100	356	2	92	2	2	0	2	1	0	2	67.5	112.5	3.06023002970991	2.01741331639846	0.25	0	0	0	212.853250993881	212.953237072332	0.0999860784504563	0.250027001835406
40003	100	357	2	93	2	2	0	2	1	0	1	112.5	67.5	-1.67332936416693	-2.79009996160977	0.283333333333333	0	0	0	213.236597968265	213.336579902098	0.0999819338321686	0.283360895933583
40099	100	358	2	94	2	2	0	2	1	0	2	157.5	22.5	-1.58906147012294	-0.776259903949766	0.283333333333333	0	0	0	213.619944942882	213.71991371084	0.0999687679577619	0.283365040784702
40174	100	359	2	95	2	2	0	2	1	0	2	67.5	112.5	-1.38401269861763	-1.8423764543303	0.2	0	0	0	213.919947551563	214.019932410913	0.0999848593492061	0.200033840723336
40224	100	360	2	96	2	2	0	2	1	0	1	112.5	157.5	-1.15191756221954	2.87971678377002	0.1	0	0	0	214.11995481723	214.219938457478	0.0999836402479559	0.100022406317294
40307.25	100	361	2	97	2	2	0	2	1	0	2	67.5	112.5	-2.14996592769717	-0.68649534513863	0.233333333333333	0	0	0	214.453302047681	214.553283006186	0.0999809585046023	0.233363590203226
40361.5	100	362	2	98	2	2	0	2	1	0	2	157.5	112.5	0.958115058175053	1.24992006701465	0.116666666666667	0	0	0	214.669976382051	214.769960022531	0.0999836404807866	0.116693375864998
40424	100	363	2	99	2	2	0	2	1	0	1	112.5	157.5	-0.775029881966216	-2.59733375657801	0.15	0	0	0	214.919978759252	215.019958742429	0.099979983177036	0.150018736720085
40499	100	364	2	100	2	2	0	2	1	0	1	22.5	67.5	-2.74299946077924	-0.291494597600482	0.2	0	0	0	215.219989413628	215.319972810335	0.0999833967071027	0.200030671199784
40586.5	100	365	2	101	2	2	0	2	1	0	1	22.5	157.5	-1.01945617486628	-2.6397459586194	0.25	0	0	0	215.569995911326	215.669979064027	0.0999831527005881	0.250023100990802
40674	100	366	2	102	2	2	0	2	1	0	2	67.5	22.5	0.331515114940439	0.458970656588119	0.25	0	0	0	215.920003871666	216.019991656765	0.0999877850990742	0.25002480763942
40744.75	100	367	2	103	2	2	0	2	1	3	1	22.5	67.5	-2.79739820054702	1.93929551562495	0.183333333333333	0	0	0	216.203343556263	216.303328415612	0.0999848593492061	0.183351899497211
40794.75	100	368	2	104	2	2	0	2	1	3	2	157.5	112.5	0.792229039353183	0.871864148079783	0.1	0	0	0	216.403394463705	216.503359818365	0.0999653546605259	0.10006604809314
40861.5	100	369	2	105	2	2	0	2	1	3	2	157.5	22.5	2.4978982517974	0.166046135334407	0.166666666666667	0	0	0	216.670024900232	216.769993180642	0.0999682804103941	0.166665081866086
40953	100	370	2	106	2	2	0	2	1	2	-1	135	0	0.549228223226226	1.66729237035507	0.266666666666667	0	0	0	217.036704318132	217.13668186334	0.0999775452073663	0.266711137490347
41011.5	100	371	2	107	2	2	0	2	1	3	1	112.5	157.5	1.55723572056396	0.539550595492398	0.133333333333333	0	0	0	217.270036700647	217.370017902926	0.0999812022782862	0.133354837307706
41111.5	100	372	2	108	2	2	0	2	1	3	1	22.5	157.5	-2.79532527392898	-2.80844299296703	0.3	0	0	0	217.670058545889	217.770034871995	0.0999763261061162	0.300040642963722
41199	100	373	2	109	2	2	0	2	1	3	1	112.5	67.5	-2.82500564084844	0.977328265538205	0.25	0	0	0	218.020062849158	218.120049902936	0.0999870537780225	0.250027977162972
41274	100	374	2	110	2	2	0	2	1	3	2	67.5	22.5	1.63284127813997	1.61042033910879	0.2	0	0	0	218.320066433167	218.420048122993	0.099981689825654	0.200016530230641
41332.25	100	375	2	111	2	2	0	2	1	0	1	112.5	67.5	1.81837902770177	0.758073145965511	0.133333333333333	0	0	0	218.553409787128	218.653414638946	0.100004851818085	0.133361664135009
41403	100	376	2	112	2	2	0	2	1	0	2	67.5	112.5	-2.06892516408267	0.310700011660334	0.183333333333333	0	0	0	218.83676946396	218.936757005285	0.0999875413253903	0.183354825014248
41465.5	100	377	2	113	2	2	0	2	1	0	2	157.5	22.5	-1.67027522457607	3.01051192497447	0.15	0	0	0	219.086779643083	219.186751824338	0.0999721812549978	0.15002263779752
41536.5	100	378	2	114	2	2	0	2	1	0	1	112.5	157.5	-1.5678918942859	-1.09704141468511	0.183333333333333	0	0	0	219.370111525757	219.47008760809	0.0999760823324323	0.183359701419249
41603	100	379	2	115	2	2	0	2	1	0	2	67.5	22.5	0.996245833789781	1.93669568324101	0.166666666666667	0	0	0	219.636797794607	219.736776071368	0.0999782767612487	0.166710186516866
41686.5	100	380	2	116	2	2	0	2	1	0	2	67.5	22.5	-1.60478845302874	0.150239945858215	0.233333333333333	0	0	0	219.97011430515	220.070100627374	0.0999863222241402	0.233338233781978
41740.5	100	381	2	117	2	2	0	2	1	0	1	22.5	157.5	2.3482846027891	-0.246621455444838	0.116666666666667	0	0	0	220.186770110158	220.286766672507	0.0999965623486787	0.116669482784346
41794.75	100	382	2	118	2	2	0	2	1	0	1	22.5	67.5	1.64376132930656	-0.630121137745649	0.116666666666667	0	0	0	220.403460292146	220.503444420174	0.0999841280281544	0.116693619638681
41853	100	383	2	119	2	2	0	2	1	0	2	157.5	22.5	-1.2042652054962	-2.63067215345581	0.133333333333333	0	0	0	220.636799989035	220.736777534243	0.0999775452073663	0.133355568861589
41915.5	100	384	2	120	2	2	0	2	1	0	1	112.5	67.5	0.351143602588695	1.16113573522092	0.15	0	0	0	220.886803829111	220.98679453996	0.0999907108489424	0.150026294868439
42007.25	100	385	2	121	2	2	0	2	1	0	1	22.5	67.5	2.06479465019031	0.405650655648048	0.266666666666667	0	0	0	221.253483490786	221.353463473963	0.099979983177036	0.266688950825483
42103.25	100	386	2	122	2	2	0	2	1	0	1	112.5	157.5	-1.56259295066146	1.72315516847417	0.283333333333333	0	0	0	221.636826076545	221.736832147464	0.100006070919335	0.283362602582201
42194.75	100	387	2	123	2	2	0	2	1	0	1	112.5	67.5	-1.86754062239033	2.78513295943334	0.266666666666667	0	0	0	222.00350988307	222.10350766452	0.0999977814499289	0.266677735606208
42278.25	100	388	2	124	2	2	0	2	1	0	1	22.5	157.5	0.595563817386813	3.0898864330784	0.233333333333333	0	0	0	222.336868816521	222.436847093049	0.0999782765284181	0.233361152000725
42328.25	100	389	2	125	2	2	0	2	1	0	2	67.5	22.5	3.12167066771379	-0.309087960487147	0.1	0	0	0	222.536844386719	222.636853627162	0.100009240442887	0.0999972936697304
42399	100	390	2	126	2	2	0	2	1	0	2	157.5	22.5	-2.09044922521809	-1.27598027601383	0.183333333333333	0	0	0	222.820216741879	222.920171368867	0.0999546269886196	0.183363114716485
42499	100	391	2	127	2	2	0	2	1	0	1	112.5	157.5	-0.161173795581775	-2.58561662834767	0.3	0	0	0	223.220228103222	223.320189800812	0.099961697589606	0.300056734355167
42599	100	392	2	128	2	2	0	2	1	0	2	67.5	112.5	-3.02802061515967	1.48320203061508	0.3	0	0	0	223.620218497235	223.720203112811	0.0999846155755222	0.300028696423396
42690.75	100	393	2	129	2	2	0	2	1	0	2	67.5	112.5	-1.96977942259701	0.659257969049394	0.266666666666667	0	0	0	223.98689279519	224.086873265915	0.0999804707244039	0.266689682379365
42769.75	100	394	2	130	2	2	0	2	1	0	1	22.5	67.5	1.97157983930816	1.60172745422006	0.216666666666667	0	0	0	224.303570518503	224.403549770359	0.0999792518559843	0.216697252588347
42857.25	100	395	2	131	2	2	0	2	1	0	1	112.5	157.5	2.755076081234	2.90600103866678	0.25	0	0	0	224.653576772194	224.753556999378	0.0999802271835506	0.250027001835406
42953.25	100	396	2	132	2	2	0	2	1	3	2	157.5	22.5	-1.47053112857581	-1.59029713177864	0.283333333333333	0	0	0	225.036938619101	225.13689665962	0.0999580405186862	0.283381619723514
43036.5	100	397	2	133	2	2	0	2	1	3	2	67.5	22.5	-1.31985845554222	-2.13262012148034	0.233333333333333	0	0	0	225.370265125763	225.470243646298	0.0999785205349326	0.233368466142565
43107.25	100	398	2	134	2	2	0	2	1	3	1	22.5	67.5	-2.52228360606086	-2.4391721260311	0.183333333333333	0	0	0	225.653621877078	225.753592839232	0.0999709621537477	0.183378230780363
43194.75	100	399	2	135	2	2	0	2	1	3	2	67.5	112.5	0.850739587254646	-2.21572628622535	0.25	0	0	0	226.003611307824	226.103589340579	0.0999780327547342	0.250018468592316
44411.5	100	400	3	0	1	1	90	1	1	3	2	157.5	112.5	-0.493028102511533	-2.73716314171835	0.2	0	0	0	230.870418847771	230.970411265269	0.0999924174975604	-1
44486.5	100	401	3	1	1	1	90	1	1	3	1	22.5	157.5	-1.65758290145399	0.711734647315519	0.2	0	0	0	231.170428039506	231.270427283598	0.0999992440920323	0.200016774237156
44561.5	100	402	3	2	1	1	90	1	1	3	1	112.5	157.5	0.771774141051463	-0.305453505770568	0.2	0	0	0	231.470449421555	231.570410875138	0.0999614535830915	0.200022137956694
44636.5	100	403	3	3	1	1	90	1	1	3	1	22.5	67.5	0.417829251130225	2.07081062702017	0.2	0	0	0	231.770460075932	231.870418847771	0.0999587718397379	0.200049200793728
44711.5	100	404	3	4	1	1	90	1	1	0	2	67.5	22.5	0.167925576722646	-2.81902722795592	0.2	0	0	0	232.07045122562	232.170429014601	0.0999777889810503	0.200032377848402
44786.5	100	405	3	5	1	1	90	1	1	0	1	22.5	157.5	-1.90508218022882	-0.772503682490337	0.2	0	0	0	232.370450421004	232.470457467251	0.100007046246901	0.200021406402811
44861.5	100	406	3	6	1	1	90	1	1	0	2	67.5	22.5	2.68604034171146	-0.286962193612446	0.2	0	0	0	232.670480824076	232.770467146533	0.0999863224569708	0.200023356825113
44936.5	100	407	3	7	1	1	90	1	1	0	1	112.5	157.5	-1.68717228299987	0.10029503211162	0.2	0	0	0	232.970467341598	233.070447081001	0.0999797394033521	0.200000195065513
45011.5	100	408	3	8	1	1	90	1	1	0	2	67.5	112.5	-1.29665720997879	-0.510164969578239	0.2	0	0	0	233.270498963539	233.370455053402	0.0999560898635536	0.200051882537082
45086.5	100	409	3	9	1	1	90	1	1	0	1	22.5	67.5	-2.58302708327606	2.78835004989895	0.2	0	0	0	233.570503766648	233.670486431802	0.0999826651532203	0.20004871324636
45161.5	100	410	3	10	1	1	90	1	1	0	2	157.5	22.5	0.0949939169521641	1.80820148826876	0.2	0	0	0	233.870496379212	233.970499768155	0.100003388943151	0.200009947409853
45236.5	100	411	3	11	1	1	90	1	1	0	2	67.5	112.5	-2.72675879621376	2.14515432320067	0.2	0	0	0	234.170522149885	234.270505302586	0.0999831527005881	0.200022381730378
45311.5	100	412	3	12	1	1	90	1	1	0	2	157.5	22.5	1.69560677170727	-2.69268374227117	0.2	0	0	0	234.470532560488	234.570515469415	0.0999829089269042	0.200027257902548
45386.5	100	413	3	13	1	1	90	1	1	0	1	112.5	67.5	-2.35618705953794	-1.97390869502651	0.2	0	0	0	234.770540533122	234.870519541204	0.0999790080823004	0.200025063706562
45461.5	100	414	3	14	1	1	90	1	1	0	1	22.5	67.5	2.33167717334401	1.07918312765608	0.2	0	0	0	235.070546799107	235.170509715565	0.0999629164580256	0.200027257902548
45536.5	100	415	3	15	1	1	90	1	1	0	2	67.5	112.5	0.588616869016856	-2.48422110258806	0.2	0	0	0	235.370544531615	235.470529634971	0.0999851033557206	0.200034816050902
45611.5	100	416	3	16	1	1	90	1	1	0	1	22.5	157.5	-0.25830134007311	1.38005775739042	0.2	0	0	0	235.670545433648	235.770545409294	0.0999999756459147	0.200015798676759
45686.5	100	417	3	17	1	1	90	1	1	0	1	22.5	157.5	2.20650169189978	-1.34803526095673	0.2	0	0	0	235.970578274922	236.070538753411	0.0999604784883559	0.2000328656286
45761.5	100	418	3	18	1	1	90	1	1	0	2	67.5	112.5	2.30558308127921	1.53709710648137	0.2	0	0	0	236.270578689408	236.370539167896	0.0999604784883559	0.200039935996756
45836.5	100	419	3	19	1	1	90	1	1	0	1	22.5	157.5	-1.89164285484042	-1.18705859660345	0.2	0	0	0	236.570572277065	236.670550553827	0.0999782767612487	0.200033109169453
45911.5	100	420	3	20	1	1	90	1	1	0	1	112.5	157.5	-0.553643995883843	-0.100719192228575	0.2	0	0	0	236.870572447777	236.970577055821	0.100004608044401	0.200021893950179
45986.5	100	421	3	21	1	1	90	1	1	0	2	67.5	22.5	-2.33796265251555	-0.198630240471717	0.2	0	0	0	237.170587247005	237.270561622689	0.0999743756838143	0.200010191183537
46061.5	100	422	3	22	1	1	90	1	1	0	2	157.5	22.5	-2.50312376779289	-2.89124928087694	0.2	0	0	0	237.470594732091	237.570592513308	0.0999977812170982	0.200033109402284
46136.5	100	423	3	23	1	1	90	1	1	0	2	157.5	112.5	2.46244417620929	-0.51118688085249	0.2	0	0	0	237.770618796116	237.870600729715	0.0999819335993379	0.200026282807812
46211.5	100	424	3	24	1	1	90	1	1	0	1	22.5	157.5	1.8876326129774	1.06456780916883	0.2	0	0	0	238.07061214	238.170608702349	0.0999965623486787	0.200011410284787
46286.5	100	425	3	25	1	1	90	1	1	0	1	112.5	67.5	-1.18401035155605	-2.37441547515919	0.2	0	0	0	238.370614261134	238.470599364489	0.0999851033557206	0.200005558785051
46361.5	100	426	3	26	1	1	90	1	1	0	1	22.5	67.5	2.51265401647854	3.07654375492279	0.2	0	0	0	238.670629060362	238.770608312218	0.0999792518559843	0.200029695872217
46436.5	100	427	3	27	1	1	90	1	1	0	1	22.5	67.5	0.384528729007299	-2.25184171670721	0.2	0	0	0	238.970658244332	239.070633839117	0.0999755947850645	0.20004993211478
46511.5	100	428	3	28	1	1	90	1	1	0	1	112.5	157.5	0.75060211821688	1.28887378176599	0.2	0	0	0	239.270664754091	239.370636204025	0.0999714499339461	0.200030914973468
46586.5	100	429	3	29	1	1	90	1	1	0	2	67.5	112.5	2.4605789407639	1.12414588629406	0.2	0	0	0	239.570658098208	239.670640275581	0.0999821773730218	0.20002189418301
46661.5	100	430	3	30	1	1	90	1	1	0	1	112.5	157.5	2.33855674558959	-0.517793382682862	0.2	0	0	0	239.870657537365	239.970636057667	0.099978520302102	0.200017261784524
46736.5	100	431	3	31	1	1	90	1	1	0	1	22.5	67.5	-3.1093173250843	-1.00144662545178	0.2	0	0	0	240.170662828023	240.270670118043	0.100007290020585	0.20002677035518
46811.5	100	432	3	32	1	1	90	1	1	0	2	157.5	22.5	1.32837694286958	-2.38622050432561	0.2	0	0	0	240.470674945507	240.570652490482	0.0999775449745357	0.200004827463999
46886.5	100	433	3	33	1	1	90	1	1	0	1	22.5	67.5	-2.98308002635463	-1.99542280283511	0.2	0	0	0	240.770704373252	240.870683381101	0.0999790078494698	0.200051882769912
46961.5	100	434	3	34	1	1	90	1	1	0	1	112.5	157.5	-1.32951735004609	0.587622773578649	0.2	0	0	0	241.070689915214	241.170667216647	0.0999773014336824	0.200006534112617
47036.5	100	435	3	35	1	1	90	1	1	0	1	22.5	157.5	-2.20495246382463	-0.496966785039497	0.2	0	0	0	241.370695449878	241.470674945507	0.0999794956296682	0.200028233230114
47111.5	100	436	3	36	1	1	90	1	1	0	2	157.5	22.5	2.15197545079011	-1.60180221786516	0.2	0	0	0	241.670707567129	241.770677797962	0.099970230832696	0.200032621622086
47186.5	100	437	3	37	1	1	90	1	1	0	1	112.5	157.5	-2.40785932096411	1.51645078471593	0.2	0	0	0	241.970719440607	242.070698936237	0.0999794956296682	0.200041642645374
47261.5	100	438	3	38	1	1	90	1	1	0	2	67.5	22.5	2.72862377970827	-2.98696761042232	0.2	0	0	0	242.270717660896	242.370704958448	0.0999872975517064	0.200018724659458
47336.5	100	439	3	39	1	1	90	1	1	0	1	112.5	157.5	-2.72664002323243	-0.726038999179911	0.2	0	0	0	242.570728315273	242.670714881504	0.0999865662306547	0.200023356825113
47411.5	100	440	3	40	1	1	90	1	1	0	1	112.5	157.5	-2.59934784067143	-2.80073993414714	0.2	0	0	0	242.870734581258	242.970746747218	0.100012165959924	0.200019699754193
47486.5	100	441	3	41	1	1	90	1	1	0	1	22.5	67.5	1.75143253179697	-2.1801016403613	0.2	0	0	0	243.17076791008	243.270733996062	0.0999660859815776	0.200021162861958
47561.5	100	442	3	42	1	1	90	1	1	0	1	22.5	67.5	-0.830013061711097	-2.95935772877125	0.2	0	0	0	243.470768812113	243.570756597212	0.0999877850990742	0.200034816050902
47636.5	100	443	3	43	1	1	90	1	1	0	2	67.5	22.5	-0.700768539667641	0.173608865355716	0.2	0	0	0	243.770760693122	243.870746040251	0.0999853471294045	0.200004095910117
47711.5	100	444	3	44	1	1	90	1	1	0	1	112.5	67.5	-0.192354009160339	0.880772594097288	0.2	0	0	0	244.070769884856	244.170756938634	0.0999870537780225	0.200023844605312
47786.5	100	445	3	45	1	1	90	1	1	0	1	112.5	157.5	2.39702005632557	-0.850202411043878	0.2	0	0	0	244.370776394615	244.470766130136	0.0999897355213761	0.20001945598051
47861.5	100	446	3	46	1	1	90	1	1	3	1	22.5	157.5	-1.09589455636888	1.45979808328766	0.2	0	0	0	244.670779490843	244.770764594199	0.0999851033557206	0.200013360707089
47936.5	100	447	3	47	1	1	90	1	1	3	1	112.5	157.5	1.86582346861704	2.1689212953344	0.2	0	0	0	244.970788682578	245.070777686778	0.0999890042003244	0.200024088378996
48011.5	100	448	3	48	1	1	90	1	1	3	2	157.5	112.5	0.852289858233012	0.0532026799474026	0.2	0	0	0	245.270802018931	245.370786634507	0.0999846155755222	0.20002433215268
48086.5	100	449	3	49	1	1	90	1	1	2	-1	135	90	-0.185158039355026	-1.14066131221911	0.2	0	0	0	245.570836079074	245.67078875564	0.0999526765663177	0.200049444567412
48161.5	100	450	3	50	1	1	90	1	1	3	2	67.5	112.5	2.1747937267274	1.83586269187858	0.2	0	0	0	245.870821133722	245.970789901679	0.0999687679577619	0.200032378081232
48236.5	100	451	3	51	1	1	90	1	1	3	1	112.5	67.5	2.26442302640766	-2.56014869824889	0.2	0	0	0	246.170823498629	246.270810552407	0.0999870537780225	0.200033596949652
48311.5	100	452	3	52	1	1	90	1	1	3	2	157.5	22.5	0.663772536819397	2.87803405402939	0.2	0	0	0	246.470834640786	246.570820231456	0.0999855906702578	0.200024088378996
48386.5	100	453	3	53	1	1	90	1	1	3	2	67.5	22.5	-2.18351408419695	1.77154055652166	0.2	0	0	0	246.770847001811	246.870823327918	0.0999763261061162	0.20002677035518
48461.5	100	454	3	54	1	1	90	1	1	0	2	157.5	112.5	2.67747109026157	0.523074446092882	0.2	0	0	0	247.070849122945	247.170833494747	0.0999843718018383	0.200025795027614
48536.5	100	455	3	55	1	1	90	1	1	0	2	157.5	22.5	-1.71553438562522	-1.3837839063095	0.2	0	0	0	247.370866360376	247.470846587326	0.09998022695072	0.2000328656286
48611.5	100	456	3	56	1	1	90	1	1	0	1	22.5	157.5	2.86994303426471	-2.87711248493936	0.2	0	0	0	247.670891643269	247.770849440014	0.0999577967450023	0.20004505594261
48686.5	100	457	3	57	1	1	90	1	1	0	1	112.5	67.5	0.366784096863412	2.14494374838536	0.2	0	0	0	247.970877429238	248.070869846735	0.0999924174975604	0.200027989223599
48761.5	100	458	3	58	1	1	90	1	1	0	2	157.5	22.5	2.37194732508098	1.01422335970899	0.2	0	0	0	248.270879550371	248.370865872595	0.0999863222241402	0.200009703636169
48836.5	100	459	3	59	1	1	90	1	1	0	1	112.5	67.5	0.947656491445906	0.822963056280337	0.2	0	0	0	248.570886547677	248.670898226323	0.100011678645387	0.20002067508176
48911.5	100	460	3	60	1	1	90	1	1	0	1	22.5	67.5	1.27334909615613	-0.477144803478032	0.2	0	0	0	248.870896714507	248.970883036964	0.0999863224569708	0.199998488184065
48986.5	100	461	3	61	1	1	90	1	1	0	1	22.5	67.5	1.97341340609228	1.64063790322555	0.2	0	0	0	249.170914195711	249.270879794145	0.0999655984342098	0.200031158747151
49061.75	100	462	3	62	1	1	90	1	1	0	2	157.5	112.5	0.176574879113259	0.697240573035736	0.2	0	0	0	249.47092777607	249.570910928771	0.0999831527005881	0.200047981925309
49136.75	100	463	3	63	1	1	90	1	1	0	1	22.5	157.5	-0.470659238465092	0.617486404638815	0.2	0	0	0	249.7709379429	249.870926215546	0.0999882726464421	0.200027014128864
49211.75	100	464	3	64	1	1	90	1	1	0	2	157.5	22.5	2.19876574790927	0.413454823060723	0.2	0	0	0	250.07093640673	250.170916633913	0.0999802271835506	0.200010191183537
49286.75	100	465	3	65	1	1	90	1	1	0	1	112.5	67.5	-2.91610945106537	1.41673442996582	0.2	0	0	0	250.370942428941	250.470922168344	0.0999797394033521	0.200025795027614
49361.75	100	466	3	66	1	1	90	1	1	0	2	67.5	112.5	3.01880226539695	-1.07909877987753	0.2	0	0	0	250.670953814872	250.770950133214	0.0999963183421642	0.20003164652735
49436.75	100	467	3	67	1	1	90	1	1	0	1	112.5	157.5	-1.14480554900323	-2.94029509473419	0.2	0	0	0	250.970963494154	251.070938113378	0.0999746192246675	0.20001336093992
49511.75	100	468	3	68	1	1	90	1	1	0	2	157.5	112.5	0.532464547778632	1.96320645864642	0.2	0	0	0	251.270999748493	251.370952425059	0.0999526765663177	0.200061635114253
49586.75	100	469	3	69	1	1	90	1	1	0	1	22.5	157.5	-3.10352044196818	-2.80127802004819	0.2	0	0	0	251.570983827813	251.670961860567	0.0999780327547342	0.200031402753666
49661.75	100	470	3	70	1	1	90	1	1	0	1	112.5	157.5	-2.9596258104515	-1.51816815888665	0.2	0	0	0	251.871000577463	251.97098397417	0.0999833967071027	0.200038716895506
49736.75	100	471	3	71	1	1	90	1	1	0	2	157.5	22.5	-1.98515142517019	2.63746262476147	0.2	0	0	0	252.170992946252	252.270975367632	0.0999824213795364	0.200008972082287
49811.75	100	472	3	72	1	1	90	1	1	0	1	22.5	67.5	-2.97928158489872	2.51624761528948	0.2	0	0	0	252.471017497825	252.570998700103	0.0999812022782862	0.200042130192742
49886.75	100	473	3	73	1	1	90	1	1	0	2	157.5	22.5	0.997075445283998	-0.669663631317189	0.2	0	0	0	252.771008403739	252.870963762281	0.0999553585425019	0.200009703636169
49961.75	100	474	3	74	1	1	90	1	1	0	1	112.5	67.5	-3.01514066349741	-0.236369635768569	0.2	0	0	0	253.071017107693	253.171019277768	0.100002170074731	0.200053345412016
50036.75	100	475	3	75	1	1	90	1	1	0	2	67.5	22.5	1.1928003800724	-2.12256497918879	0.2	0	0	0	253.371024836553	253.471011890331	0.0999870537780225	0.200005558785051
50111.75	100	476	3	76	1	1	90	1	1	0	1	112.5	67.5	0.316527785574071	-2.40491185977271	0.2	0	0	0	253.671053289203	253.771033516154	0.09998022695072	0.20004139887169
50186.75	100	477	3	77	1	1	90	1	1	0	2	67.5	112.5	0.153457668365942	1.95847341790832	0.2	0	0	0	253.971048095962	254.071023934521	0.0999758385587484	0.200014579808339
50261.75	100	478	3	78	1	1	90	1	1	0	1	112.5	67.5	-2.27625469218552	1.740718349978	0.2	0	0	0	254.271047047572	254.371029468952	0.0999824213795364	0.200023113051429
50336.75	100	479	3	79	1	1	90	1	1	0	2	157.5	112.5	-2.74235160807269	2.25993616794513	0.2	0	0	0	254.571055751527	254.671039635781	0.0999838842544705	0.200026282574981
50411.75	100	480	3	80	1	1	90	1	1	0	2	157.5	112.5	-0.172383726679176	1.50883376391514	0.2	0	0	0	254.871060554637	254.971042000689	0.0999814460519701	0.200020918855444
50486.75	100	481	3	81	1	1	90	1	1	0	2	67.5	22.5	-2.70000627938173	-1.35371543573257	0.2	0	0	0	255.171072915895	255.271052899072	0.099979983177036	0.200030915206298
50561.75	100	482	3	82	1	1	90	1	1	0	1	112.5	67.5	0.032135749270962	-2.06516614852641	0.2	0	0	0	255.471079913201	255.57105892105	0.0999790078494698	0.200027014128864
50636.75	100	483	3	83	1	1	90	1	1	0	2	67.5	22.5	1.96687174132735	-0.183966679146419	0.2	0	0	0	255.771086910507	255.871064943261	0.0999780327547342	0.20002798945643
50711.75	100	484	3	84	1	1	90	1	1	0	1	22.5	157.5	1.10997594988163	1.76459564590236	0.2	0	0	0	256.071095858235	256.171084374888	0.0999885166529566	0.200030914973468
50786.75	100	485	3	85	1	1	90	1	1	0	1	22.5	157.5	-2.57275540251173	-0.303902472384499	0.2	0	0	0	256.371102855541	256.471090153093	0.0999872975517064	0.200018480652943
50861.75	100	486	3	86	1	1	90	1	1	0	2	157.5	112.5	2.65590447594816	-2.54023686223411	0.2	0	0	0	256.671136915917	256.771097638179	0.0999607222620398	0.200046762824059
50936.75	100	487	3	87	1	1	90	1	1	0	2	67.5	22.5	-0.070410469073364	2.78810032010467	0.2	0	0	0	256.971124408301	257.071097077336	0.0999726690351963	0.200026770122349
51011.75	100	488	3	88	1	1	90	1	1	0	2	157.5	112.5	-2.42503809348062	2.33045112614792	0.2	0	0	0	257.271148716332	257.371110657463	0.0999619411304593	0.200051638996229
51086.75	100	489	3	89	1	1	90	1	1	0	1	112.5	67.5	3.11820093132906	0.845295491040816	0.2	0	0	0	257.571138403146	257.671124969143	0.0999865659978241	0.200027745682746
51161.75	100	490	3	90	1	1	90	1	1	0	2	157.5	112.5	1.99105505396656	2.25682922362346	0.2	0	0	0	257.871148569975	257.971153909341	0.100005339365453	0.200023600831628
51236.75	100	491	3	91	1	1	90	1	1	0	2	157.5	112.5	2.14189968518112	-1.99847788083722	0.2	0	0	0	258.171174584422	258.271137013333	0.0999624289106578	0.20002067508176
51311.75	100	492	3	92	1	1	90	1	1	0	1	22.5	157.5	-0.592208970079137	-1.72531787414	0.2	0	0	0	258.471186214127	258.571138890693	0.0999526765663177	0.200049200793728
51386.75	100	493	3	93	1	1	90	1	1	0	2	157.5	112.5	2.5718748212359	-0.212981867881626	0.2	0	0	0	258.771188822808	258.871171244187	0.0999824213795364	0.20004993211478
51461.75	100	494	3	94	1	1	90	1	1	0	1	22.5	67.5	-2.79855124440623	1.39466935221753	0.2	0	0	0	259.071178265847	259.17118506832	0.100006802473217	0.200007021659985
51536.75	100	495	3	95	1	1	90	1	1	0	2	67.5	22.5	1.61685573659665	-1.74237946420524	0.2	0	0	0	259.371199160349	259.47117987508	0.0999807147309184	0.200014092028141
51611.75	100	496	3	96	1	1	90	1	1	3	2	67.5	112.5	-0.210374819000143	-0.173041553668177	0.2	0	0	0	259.671213228256	259.771200769581	0.0999875413253903	0.200033353175968
51686.75	100	497	3	97	1	1	90	1	1	3	1	22.5	157.5	2.05052751698747	0.360814758416866	0.2	0	0	0	259.97122485796	260.071208985988	0.0999841280281544	0.200024088378996
51761.75	100	498	3	98	1	1	90	1	1	3	2	157.5	22.5	1.05016252982945	2.3602058965635	0.2	0	0	0	260.271233805688	260.371213301318	0.0999794956296682	0.200024819700047
51836.75	100	499	3	99	1	1	90	1	1	1	-1	90	45	2.02933415733627	-2.18886637396808	0.2	0	0	0	260.571241778322	260.671224443475	0.0999826651532203	0.200028477003798
51911.75	100	500	3	100	1	1	90	1	1	3	1	22.5	67.5	0.6398110051099	-1.37945733769063	0.2	0	0	0	260.871229270939	260.971211936092	0.0999826651532203	0.200004827463999
51986.75	100	501	3	101	1	1	90	1	1	3	1	112.5	67.5	-1.93385548858689	-0.60838807307813	0.2	1	0.492147502023727	1	261.171235780697	261.27121795807	0.0999821773730218	0.200023844605312
52061.75	100	502	3	102	1	1	90	1	1	3	2	67.5	22.5	2.9956121772614	-2.43585421199856	0.2	0	0	0	261.471247166628	261.571227393579	0.09998022695072	0.20002920855768
52136.75	100	503	3	103	1	1	90	1	1	3	2	157.5	112.5	-1.94832956865623	1.7152740625355	0.2	0	0	0	261.771253188606	261.871235366212	0.0999821776058525	0.200025795027614
52211.75	100	504	3	104	1	1	90	1	1	0	2	157.5	112.5	2.02317242757112	-2.04103692215835	0.2	0	0	0	262.071257747943	262.171245045494	0.0999872975517064	0.200022381730378
52286.75	100	505	3	105	1	1	90	1	1	0	1	112.5	157.5	-0.301806922312033	0.742393523112535	0.2	0	0	0	262.37126596435	262.471246922854	0.0999809585046023	0.200020918855444
52361.75	100	506	3	106	1	1	90	1	1	0	2	67.5	22.5	2.52567996744044	-0.237431317249166	0.2	0	0	0	262.671272473875	262.771263184957	0.099990711081773	0.200025551021099
52436.75	100	507	3	107	1	1	90	1	1	0	1	22.5	67.5	-0.20102324291071	-1.52204226652768	0.2	0	0	0	262.971288248431	263.071266281186	0.0999780327547342	0.200025063473731
52511.75	100	508	3	108	1	1	90	1	1	0	2	67.5	112.5	0.333905694319788	-1.85514801094689	0.2	0	0	0	263.27127110865	263.371294490062	0.100023381412029	0.200004827463999
52586.75	100	509	3	109	1	1	90	1	1	0	2	157.5	22.5	2.18997487877603	-2.6027896456444	0.2	0	0	0	263.571319309762	263.671303194016	0.0999838842544705	0.200024819700047
52661.75	100	510	3	110	1	1	90	1	1	0	2	67.5	112.5	1.66354313704518	2.84258791593932	0.2	0	0	0	263.87132581952	263.971312873298	0.0999870537780225	0.200022625504062
52736.75	100	511	3	111	1	1	90	1	1	0	1	112.5	67.5	1.74604502294036	1.63238955913582	0.2	0	0	0	264.171314775012	264.27129841526	0.0999836402479559	0.200001901714131
52811.75	100	512	3	112	1	1	90	1	1	0	1	112.5	157.5	0.2104708171304	-1.48468424215274	0.2	0	0	0	264.471322747646	264.57130906987	0.0999863222241402	0.20002433238551
52886.75	100	513	3	113	1	1	90	1	1	0	2	67.5	112.5	1.2159229028969	2.57930913420836	0.2	0	0	0	264.771333402023	264.871312897652	0.0999794956296682	0.20002433215268
52961.75	100	514	3	114	1	1	90	1	1	0	2	157.5	22.5	-0.374498183756054	-1.21610111895504	0.2	0	0	0	265.071339424001	265.171325014904	0.0999855909030885	0.200026526348665
53036.75	100	515	3	115	1	1	90	1	1	0	2	157.5	112.5	2.77208034226155	-1.13952687077629	0.2	0	0	0	265.371349591063	265.471330305561	0.0999807144980878	0.200024576159194
53111.75	100	516	3	116	1	1	90	1	1	0	2	67.5	112.5	-1.62795467099799	0.610171853487503	0.2	0	0	0	265.671381700784	265.77136046486	0.0999787640757859	0.200051395222545
53186.75	100	517	3	117	1	1	90	1	1	0	2	67.5	22.5	-0.390865059691881	-2.93101077442057	0.2	0	0	0	265.971385528566	266.071349420352	0.0999638917855918	0.200025063706562
53261.75	100	518	3	118	1	1	90	1	1	0	2	67.5	112.5	-2.20902912845531	0.896682457580801	0.2	0	0	0	266.271370582981	266.371359587181	0.0999890042003244	0.200021162629128
53336.75	100	519	3	119	1	1	90	1	1	0	1	112.5	67.5	-2.00631696216676	-0.781955761887654	0.2	0	0	0	266.571382212685	266.671365365386	0.0999831527005881	0.200022625504062
53411.75	100	520	3	120	1	1	90	1	1	0	1	22.5	157.5	-2.84743924458798	2.48627131597798	0.2	0	0	0	266.87141164043	266.971383334137	0.09997169370763	0.20004627504386
53486.75	100	521	3	121	1	1	90	1	1	0	2	67.5	112.5	-0.618801876805586	-2.95890009459926	0.2	0	0	0	267.171398889273	267.271381554427	0.0999826651532203	0.200015555135906
53561.75	100	522	3	122	1	1	90	1	1	0	2	67.5	22.5	-2.48824266176024	2.01965824261049	0.2	0	0	0	267.471405886579	267.571388795506	0.0999829089269042	0.20002433215268
53636.75	100	523	3	123	1	1	90	1	1	0	2	157.5	22.5	-0.211821009326364	-1.14250258048951	0.2	0	0	0	267.771438727854	267.871404082514	0.0999653546605259	0.200049932347611
53711.75	100	524	3	124	1	1	90	1	1	3	2	67.5	22.5	-2.82931486821857	0.201479164961008	0.2	0	0	0	268.071420368971	268.171410348266	0.09998997929506	0.200016286456957
53786.75	100	525	3	125	1	1	90	1	1	3	2	157.5	22.5	2.47626191564053	-2.59246552699465	0.2	0	0	0	268.371434436645	268.471416614251	0.0999821776058525	0.200024088378996
53861.75	100	526	3	126	1	1	90	1	1	3	1	112.5	67.5	-2.95536743259411	-2.88025796458183	0.2	0	0	0	268.671427292982	268.771416053409	0.0999887604266405	0.200010678730905
53936.75	100	527	3	127	1	1	90	1	1	3	2	67.5	112.5	-1.64922266537293	2.89772664598944	0.2	0	0	0	268.971443067538	269.07144865091	0.100005583371967	0.200027014128864
54957.5	100	528	4	0	2	1	90	1	1	3	2	67.5	112.5	1.55870676459991	2.76551656648444	0.233333333333333	0	0	0	273.054884469602	273.154878349975	0.0999938803724945	-1
55020	100	529	4	1	2	1	90	1	1	3	1	22.5	157.5	-0.168653125550394	1.52057782643956	0.15	0	0	0	273.304917322937	273.404885847121	0.099968524184078	0.150038972962648
55120	100	530	4	2	2	1	90	1	1	3	1	112.5	157.5	-1.49610431636936	-1.50703571474861	0.3	0	0	0	273.704913568217	273.804890138097	0.0999765698798001	0.30002772109583
55191	100	531	4	3	2	1	90	1	1	3	2	67.5	22.5	2.32090401208687	-1.43481909211622	0.183333333333333	0	0	0	273.988250570837	274.088227140717	0.0999765698798001	0.183360432740301
55253.5	100	532	4	4	2	1	90	1	1	0	2	157.5	22.5	2.45862540064539	-0.691461932768548	0.15	0	0	0	274.238258067984	274.338258287404	0.100000219419599	0.150030927266926
55303.5	100	533	4	5	2	1	90	1	1	0	1	112.5	67.5	-2.31705251976857	2.76022849990118	0.1	0	0	0	274.438268746948	274.538246535929	0.0999777889810503	0.100010459544137
55403.5	100	534	4	6	2	1	90	1	1	0	1	112.5	67.5	-0.307254248975794	1.7643667385483	0.3	0	0	0	274.838272062596	274.938259116374	0.0999870537780225	0.300025526667014
55491	100	535	4	7	2	1	90	1	1	0	1	112.5	67.5	1.76118462642412	-1.98601915944744	0.25	0	0	0	275.188306842232	275.288285118761	0.0999782765284181	0.250047725858167
55586.75	100	536	4	8	2	1	90	1	1	0	2	67.5	112.5	1.92266649217399	2.22284833764323	0.283333333333333	0	0	0	275.571626997553	275.671632580692	0.100005583139136	0.283341878792271
55686.75	100	537	4	9	2	1	90	1	1	0	1	112.5	157.5	-2.48415489683892	2.19405140520803	0.3	0	0	0	275.971650549443	276.071629069978	0.0999785205349326	0.30001796875149
55770	100	538	4	10	2	1	90	1	1	0	1	112.5	157.5	-1.04023277695208	-1.65886590972145	0.233333333333333	0	0	0	276.304991197074	276.404978738399	0.0999875413253903	0.233362127095461
55832.5	100	539	4	11	2	1	90	1	1	0	2	67.5	22.5	-0.0142983055895249	-1.10940807678783	0.15	0	0	0	276.554985041032	276.654964780435	0.0999797394033521	0.150006302632391
55882.5	100	540	4	12	2	1	90	1	1	0	2	157.5	112.5	-2.91960864408891	-1.98776891161099	0.1	0	0	0	276.754992550239	276.854970582994	0.0999780327547342	0.100027769804001
55953.5	100	541	4	13	2	1	90	1	1	0	2	67.5	22.5	2.48175563814816	1.17203062506256	0.183333333333333	0	0	0	277.038376120618	277.138311486691	0.0999353660736233	0.183405537623912
56036.75	100	542	4	14	2	1	90	1	1	0	1	112.5	67.5	-1.47397334523575	-2.16005850725817	0.233333333333333	0	0	0	277.371671663364	277.471667738166	0.0999960748013109	0.233360176673159
56111.75	100	543	4	15	2	1	90	1	1	0	2	67.5	22.5	-0.951212368924924	2.39076242364521	0.2	0	0	0	277.671682317974	277.771690826863	0.100008508889005	0.200014579808339
56203.5	100	544	4	16	2	1	90	1	1	0	2	67.5	112.5	-1.39552014172559	-1.14954047904566	0.266666666666667	0	0	0	278.038357834797	278.138346838998	0.0999890042003244	0.266667007934302
56303.5	100	545	4	17	2	1	90	1	1	0	2	67.5	112.5	-1.07705914271617	-0.144526247175799	0.3	0	0	0	278.438375291647	278.538355031051	0.0999797394033521	0.300028452649713
56370.25	100	546	4	18	2	1	90	1	1	0	1	22.5	67.5	1.12856132324933	-1.05854681550673	0.166666666666667	0	0	0	278.705045713112	278.805026183836	0.0999804707244039	0.166690682061017
56436.75	100	547	4	19	2	1	90	1	1	0	1	22.5	157.5	1.84841135578451	1.62231467201496	0.166666666666667	0	0	0	278.971721985843	279.071701237466	0.0999792516231537	0.166695802006871
56524.25	100	548	4	20	2	1	90	1	1	0	2	157.5	22.5	0.151184237270647	2.93272756294703	0.25	0	0	0	279.321733847028	279.421709685586	0.0999758385587484	0.250032609561458
56591	100	549	4	21	2	1	90	1	1	0	1	112.5	157.5	-1.67698753629835	-0.891535058647067	0.166666666666667	0	0	0	279.58840231807	279.68838547077	0.0999831527005881	0.166692632483318
56686.75	100	550	4	22	2	1	90	1	1	0	2	157.5	112.5	2.98874555466259	1.97027386982595	0.283333333333333	0	0	0	279.97174612293	280.071727812756	0.099981689825654	0.283360652159899
56778.5	100	551	4	23	2	1	90	1	1	0	1	22.5	157.5	-1.67344318746399	2.88903866524104	0.266666666666667	0	0	0	280.338420420885	280.438411375508	0.0999909546226263	0.266692608129233
56832.75	100	552	4	24	2	1	90	1	1	0	1	112.5	157.5	0.50448052840624	2.83350620757689	0.116666666666667	0	0	0	280.555096949684	280.655074738432	0.0999777887482196	0.11668557417579
56886.75	100	553	4	25	2	1	90	1	1	0	1	22.5	157.5	2.32951773806162	-2.08959053473456	0.116666666666667	0	0	0	280.771786644123	280.871757362504	0.0999707183800638	0.116711905691773
56957.75	100	554	4	26	2	1	90	1	1	0	2	67.5	112.5	0.278186148016152	2.7447418733716	0.183333333333333	0	0	0	281.055107555352	281.15509460913	0.0999870537780225	0.183350192848593
57016	100	555	4	27	2	1	90	1	1	0	1	112.5	67.5	-0.479169702499309	0.880296221413663	0.133333333333333	0	0	0	281.288446276914	281.38843381824	0.0999875413253903	0.133351667784154
57086.75	100	556	4	28	2	1	90	1	1	0	1	22.5	157.5	1.67169602306949	-2.59005646697039	0.183333333333333	0	0	0	281.571790349903	281.671773502836	0.0999831529334188	0.183356531662866
57178.5	100	557	4	29	2	1	90	1	1	0	1	112.5	157.5	2.00509714533015	-1.60798457035242	0.266666666666667	0	0	0	281.938468304928	282.03846730548	0.0999990005511791	0.266694802092388
57253.5	100	558	4	30	2	1	90	1	1	0	2	157.5	22.5	-2.66601446259916	-0.694396293122576	0.2	0	0	0	282.238497245358	282.338461137144	0.0999638917855918	0.200029939878732
57332.75	100	559	4	31	2	1	90	1	1	0	1	22.5	67.5	-1.7809689595902	-3.1361836391678	0.216666666666667	0	0	0	282.555149612483	282.65512959566	0.099979983177036	0.216688475338742
57386.75	100	560	4	32	2	1	90	1	1	0	2	67.5	112.5	-0.791967148380563	1.11415941789008	0.116666666666667	0	0	0	282.771819802234	282.871803686488	0.0999838842544705	0.116690206574276
57445.25	100	561	4	33	2	1	90	1	1	0	1	112.5	157.5	2.93089055862687	-1.87298462654632	0.133333333333333	0	0	0	283.005166325718	283.105139969848	0.0999736441299319	0.133362639229745
57507.75	100	562	4	34	2	1	90	1	1	0	1	112.5	157.5	-1.68424074208854	-1.00693082633735	0.15	0	0	0	283.255160169443	283.355154049816	0.0999938803724945	0.150020199595019
57561.75	100	563	4	35	2	1	90	1	1	0	1	22.5	67.5	-0.792514734989656	-2.19933319157707	0.116666666666667	0	0	0	283.471850107657	283.571824727114	0.0999746194574982	0.116696057841182
57657.75	100	564	4	36	2	1	90	1	1	0	1	112.5	157.5	1.87982768008868	0.997948171025069	0.283333333333333	0	0	0	283.85518147843	283.955167069333	0.0999855909030885	0.283356751315296
57707.75	100	565	4	37	2	1	90	1	1	0	1	22.5	157.5	0.914645225068078	-0.299874625507498	0.1	0	0	0	284.055188743863	284.155175066087	0.0999863222241402	0.100021674530581
57757.75	100	566	4	38	2	1	90	1	1	0	2	67.5	112.5	-2.83153069709674	1.0672294040019	0.1	0	0	0	284.255195765523	284.35518208798	0.0999863224569708	0.100020699435845
57820.25	100	567	4	39	2	1	90	1	1	0	2	157.5	112.5	-2.64052152531009	-1.23031517586703	0.15	0	0	0	284.505198630504	284.605182270752	0.0999836402479559	0.150016542524099
57895.25	100	568	4	40	2	1	90	1	1	0	1	112.5	67.5	2.13739552350581	-0.362345298277528	0.2	0	0	0	284.805209284881	284.905189511832	0.09998022695072	0.200027014128864
57978.5	100	569	4	41	2	1	90	1	1	0	1	22.5	67.5	-2.09655314772023	1.70747679075928	0.233333333333333	0	0	0	285.138553833356	285.238531866111	0.0999780327547342	0.233364321524277
58061.75	100	570	4	42	2	1	90	1	1	0	2	157.5	112.5	-2.53808680931936	-0.486838759529871	0.233333333333333	0	0	0	285.47189521254	285.57187763392	0.0999824213795364	0.233363346429542
58120.25	100	571	4	43	2	1	90	1	1	0	2	157.5	22.5	-2.01421714789595	0.265856759015652	0.133333333333333	0	0	0	285.705255632987	285.805239029694	0.0999833967071027	0.133377999067307
58186.75	100	572	4	44	2	1	90	1	1	0	2	67.5	22.5	-2.67722014342529	0.364408611525872	0.166666666666667	0	0	0	285.971930443076	286.071896041511	0.0999655984342098	0.166691413382068
58266	100	573	4	45	2	1	90	1	1	0	2	157.5	22.5	1.5478754302902	-2.24466834320913	0.216666666666667	0	0	0	286.288605728419	286.388572545955	0.09996681753546	0.216709686908871
58357.75	100	574	4	46	2	1	90	1	1	0	1	112.5	67.5	-2.52980708453936	-0.261858508254144	0.266666666666667	0	0	0	286.655260277679	286.755244649481	0.0999843718018383	0.266687731724232
58416	100	575	4	47	2	1	90	1	1	0	2	67.5	22.5	2.59853838986313	-0.069511176756011	0.133333333333333	0	0	0	286.888597292593	286.98858312727	0.0999858346767724	0.133352643111721
58507.75	100	576	4	48	2	1	90	1	1	0	2	67.5	22.5	0.878617817815946	0.610993319818534	0.266666666666667	0	0	0	287.255279392237	287.35525913164	0.0999797394033521	0.266696264967322
58566	100	577	4	49	2	1	90	1	1	0	1	22.5	67.5	2.07573235596272	-0.339585075761072	0.133333333333333	0	0	0	287.488622989971	287.588603217155	0.0999802271835506	0.133363858330995
58616	100	578	4	50	2	1	90	1	1	0	1	112.5	157.5	-1.25602089105803	-0.903732647096986	0.1	0	0	0	287.688624160364	287.788625598885	0.100001438520849	0.100020943209529
58716	100	579	4	51	2	1	90	1	1	0	1	22.5	67.5	2.45232210793589	1.42857475007923	0.3	0	0	0	288.088652588427	288.18862038129	0.0999677928630263	0.300026989541948
58795.25	100	580	4	52	2	1	90	1	1	0	2	157.5	112.5	-2.92072874677993	2.86826357151014	0.216666666666667	0	0	0	288.405304712011	288.505288352259	0.0999836402479559	0.216684330720454
58886.75	100	581	4	53	2	1	90	1	1	3	1	112.5	67.5	0.322861198231768	-1.24654534519245	0.266666666666667	0	0	0	288.771972670918	288.87195704272	0.0999843718018383	0.266684318659827
58949.25	100	582	4	54	2	1	90	1	1	3	1	22.5	67.5	-2.89227243571912	-2.77191196517799	0.15	0	0	0	289.021982362261	289.121963808313	0.0999814460519701	0.150025319540873
58999.25	100	583	4	55	2	1	90	1	1	3	1	112.5	157.5	3.02607502395714	0.258857908717753	0.1	0	0	0	289.221983776428	289.32196522248	0.0999814460519701	0.100019968114793
59095.25	100	584	4	56	2	1	90	1	1	2	-1	135	90	1.58849991898295	-0.689998046417498	0.283333333333333	0	0	0	289.605328556616	289.70531487884	0.0999863222241402	0.283363334136084
59166	100	585	4	57	2	1	90	1	1	3	1	22.5	157.5	0.482183154708911	2.55129931484676	0.183333333333333	0	0	0	289.888679700205	289.988652125234	0.0999724250286818	0.183364821365103
59253.5	100	586	4	58	2	1	90	1	1	3	2	157.5	22.5	1.94405040275788	1.55555890324556	0.25	0	0	0	290.238679127302	290.338671788573	0.0999926612712443	0.250027002068236
59332.75	100	587	4	59	2	1	90	1	1	3	2	67.5	112.5	0.800694255839085	2.17684014025683	0.216666666666667	0	0	0	290.555351974443	290.655333664268	0.099981689825654	0.216680185869336
59407.75	100	588	4	60	2	1	90	1	1	3	2	67.5	22.5	0.712741738974458	-2.09119625199173	0.2	0	0	0	290.855362628819	290.955345050199	0.0999824213795364	0.200028964551166
59461.75	100	589	4	61	2	1	90	1	1	0	2	157.5	22.5	-1.13716895654735	2.04205948300137	0.116666666666667	0	0	0	291.072034769226	291.172015727498	0.0999809582717717	0.116689719026908
59549.25	100	590	4	62	2	1	90	1	1	0	1	22.5	67.5	-2.09085129043566	-3.0824481524324	0.25	0	0	0	291.42204955616	291.52205855283	0.100008996669203	0.250033828662708
59616	100	591	4	63	2	1	90	1	1	0	2	157.5	22.5	0.58481288055667	-0.0866845728764725	0.166666666666667	0	0	0	291.688745089807	291.788722878788	0.0999777889810503	0.166686536977068
59707.75	100	592	4	64	2	1	90	1	1	0	1	22.5	67.5	-1.24722233638688	-2.96433044704579	0.266666666666667	0	0	0	292.055393544026	292.155377184274	0.0999836402479559	0.266670665238053
59786.75	100	593	4	65	2	1	90	1	1	0	1	22.5	157.5	-2.32960415825162	-1.67691614763556	0.216666666666667	0	0	0	292.372073949315	292.472071730765	0.0999977814499289	0.216696765040979
59862	100	594	4	66	2	1	90	1	1	0	1	112.5	157.5	-1.75108997762338	-2.95331128486458	0.2	0	0	0	292.672094356269	292.772074339446	0.099979983177036	0.200022625504062
59924.5	100	595	4	67	2	1	90	1	1	0	1	112.5	67.5	-1.97269565718516	1.28902526847665	0.15	0	0	0	292.922092832392	293.022080373717	0.0999875413253903	0.150018492946401
59987	100	596	4	68	2	1	90	1	1	0	1	22.5	67.5	1.53016165803953	2.70896453036842	0.15	0	0	0	293.172129586572	293.272088114638	0.099958528066054	0.150049212854356
60057.75	100	597	4	69	2	1	90	1	1	0	2	157.5	22.5	2.28194861208954	-1.27807957797912	0.183333333333333	0	0	0	293.455454155104	293.555425605038	0.0999714499339461	0.183366040466353
60132.75	100	598	4	70	2	1	90	1	1	0	2	67.5	112.5	-0.770411356915484	0.222147574485459	0.2	0	0	0	293.755449205637	293.855433577439	0.0999843718018383	0.200023600598797
60187	100	599	4	71	2	1	90	1	1	0	2	157.5	112.5	-2.53271132531833	-2.90623396550369	0.116666666666667	0	0	0	293.972131342161	294.072107424494	0.0999760823324323	0.11669776472263
60270.25	100	600	4	72	2	1	90	1	1	0	2	67.5	22.5	-0.536393080731641	-0.848155450086579	0.233333333333333	0	0	0	294.305466625839	294.405450022547	0.0999833967071027	0.233359201345593
60353.5	100	601	4	73	2	1	90	1	1	0	2	157.5	22.5	-3.05513983660684	1.63793176223033	0.233333333333333	0	0	0	294.638809467899	294.738814075943	0.100004608044401	0.233359445352107
60441	100	602	4	74	2	1	90	1	1	0	2	67.5	112.5	1.09518518960327	-1.53448793053173	0.25	0	0	0	294.988840590231	295.088821304729	0.0999807144980878	0.250026514288038
