onset	duration	total_event_number	stream_number	event_num_per_stream	timing_predictability	target_col	target_ori	n_targets	n_distractors	is_target	ori_pair_num	att_ori	unatt_ori	gabor_phase_att	gabor_phase_unatt	blank_dur	response	rt	correct	time_stimon	time_stimoff	stim_dur	ISI_dur
25045.75	100	0	0	0	2	2	0	1	1	3	1	22.5	157.5	-0.759291162404197	-1.24563723989301	0.25	0	0	0	214.33266139403	214.432627968024	0.0999665739946067	-1
25129.25	100	1	0	1	2	2	0	1	1	3	2	67.5	22.5	-0.416794531349851	-1.39843770539518	0.233333333333333	0	0	0	214.665996677708	214.765959350858	0.099962673150003	0.233368709683418
25204.25	100	2	0	2	2	2	0	1	1	3	1	22.5	67.5	-0.895473157274263	-2.45602024406098	0.2	0	0	0	214.966008307878	215.065988291055	0.099979983177036	0.200048957020044
25258.25	100	3	0	3	2	2	0	1	1	3	2	157.5	112.5	2.80245754201583	1.0914277789083	0.116666666666667	0	0	0	215.182679472491	215.282659212127	0.0999797396361828	0.116691181436181
25320.75	100	4	0	4	2	2	0	1	1	0	2	157.5	112.5	0.865722839417617	-2.67159170372506	0.15	0	0	0	215.432663320098	215.532640133984	0.0999768138863146	0.150004107970744
25420.75	100	5	0	5	2	2	0	1	1	0	2	67.5	22.5	1.05610972638317	2.39648333719564	0.3	0	0	0	215.832675169222	215.932648569811	0.0999734005890787	0.30003503523767
25504.25	100	6	0	6	2	2	0	1	1	0	1	22.5	157.5	0.145169499827416	2.89504401457958	0.233333333333333	0	0	0	216.166008258704	216.265993362293	0.0999851035885513	0.233359688892961
25595.75	100	7	0	7	2	2	0	1	1	0	2	157.5	22.5	1.09020783173227	-2.1029467621694	0.266666666666667	0	0	0	216.532691089902	216.632668878883	0.0999777889810503	0.266697727609426
25679.25	100	8	0	8	2	2	0	1	1	0	1	112.5	67.5	2.6129130015334	-0.430352406562049	0.233333333333333	0	0	0	216.866058069281	216.96603927156	0.0999812022782862	0.233389190398157
25770.75	100	9	0	9	2	2	0	1	1	0	1	22.5	157.5	-0.507299363107846	-3.03667011591666	0.266666666666667	0	0	0	217.232709205244	217.332686262671	0.0999770574271679	0.26666993368417
25829.25	100	10	0	10	2	2	0	1	1	0	2	67.5	22.5	2.83494837355012	1.0071184201415	0.133333333333333	0	0	0	217.466045976151	217.56602839753	0.0999824213795364	0.133359713479877
25900	100	11	0	11	2	2	0	1	1	0	1	22.5	157.5	-0.946157274694384	-0.357154936550757	0.183333333333333	0	0	0	217.749391268473	217.849370764103	0.0999794956296682	0.183362870942801
25983.25	100	12	0	12	2	2	0	1	1	0	1	22.5	67.5	1.02215869005394	-2.21576563297468	0.233333333333333	0	0	0	218.08272923436	218.182714337483	0.09998510312289	0.233358470257372
26050	100	13	0	13	2	2	0	1	1	0	2	67.5	112.5	3.02864850945668	-3.09938283089268	0.166666666666667	0	0	0	218.349403068889	218.449385977816	0.0999829089269042	0.166688731405884
26133.25	100	14	0	14	2	2	0	1	1	0	2	67.5	112.5	0.730509910059873	-2.01248256918076	0.233333333333333	0	0	0	218.682746154722	218.783123059664	0.100376904942095	0.23336017690599
26183.25	100	15	0	15	2	2	0	1	1	0	2	157.5	22.5	2.89845826111104	1.53578871639713	0.1	0	0	0	218.882752932608	218.982733403333	0.0999804707244039	0.099629872944206
26283.25	100	16	0	16	2	2	0	1	1	0	2	67.5	112.5	1.7696411296808	2.26001956628669	0.3	0	0	0	219.282768682577	219.382746471558	0.0999777889810503	0.300035279244184
26366.75	100	17	0	17	2	2	0	1	1	0	2	157.5	22.5	-0.508310795057995	-0.404619831254608	0.233333333333333	0	0	0	219.616103722714	219.716101747472	0.0999980247579515	0.233357251156121
26458.25	100	18	0	18	2	2	0	1	1	0	2	67.5	112.5	1.26585742881621	-2.2605831168228	0.266666666666667	0	0	0	219.982792648952	220.082775557879	0.0999829089269042	0.266690901480615
26529.25	100	19	0	19	2	2	0	1	1	0	1	112.5	67.5	-2.83214944599431	1.62670805107693	0.183333333333333	0	0	0	220.266132089775	220.366117924452	0.0999858346767724	0.183356531895697
26591.75	100	20	0	20	2	2	0	1	1	0	1	22.5	157.5	1.03688083185814	-1.38841077907735	0.15	0	0	0	220.51615007082	220.616135173943	0.09998510312289	0.150032146368176
26666.75	100	21	0	21	2	2	0	1	1	0	2	67.5	112.5	0.389068907843757	1.28158175835708	0.2	0	0	0	220.816149753984	220.916126811411	0.0999770574271679	0.20001458004117
26750	100	22	0	22	2	2	0	1	1	0	2	157.5	112.5	-2.07392399937544	0.148763185146481	0.233333333333333	0	0	0	221.149490645155	221.249475504737	0.0999848595820367	0.233363833744079
26820.75	100	23	0	23	2	2	0	1	1	0	1	112.5	157.5	-1.14101767424896	-2.8213247424536	0.183333333333333	0	0	0	221.432831792627	221.53282079706	0.0999890044331551	0.183356287889183
26879.25	100	24	0	24	2	2	0	1	1	0	2	157.5	22.5	0.0320682279818287	-2.63675825738288	0.133333333333333	0	0	0	221.666173439939	221.766154642217	0.0999812022782862	0.13335264287889
26950	100	25	0	25	2	2	0	1	1	0	2	157.5	22.5	1.93034468355744	-0.878418179198024	0.183333333333333	0	0	0	221.949527753051	222.049497008789	0.0999692557379603	0.183373110834509
27029.25	100	26	0	26	2	2	0	1	1	0	1	112.5	157.5	-2.99776585794101	0.0788784896024071	0.216666666666667	0	0	0	222.26619328605	222.366165467538	0.0999721814878285	0.21669627726078
27091.75	100	27	0	27	2	2	0	1	1	0	2	157.5	22.5	-1.06528306089056	-0.883637930381329	0.15	0	0	0	222.516196394339	222.61617418332	0.0999777889810503	0.150030926801264
27154.25	100	28	0	28	2	2	0	1	1	0	1	22.5	67.5	2.11288476982824	-1.25568890861208	0.15	0	0	0	222.76620169729	222.866177779622	0.0999760823324323	0.15002751396969
27204.25	100	29	0	29	2	2	0	1	1	0	2	157.5	112.5	0.665533324795272	-2.103031752755	0.1	0	0	0	222.966208963189	223.066190409008	0.0999814458191395	0.100031183566898
27283.25	100	30	0	30	2	2	0	1	1	0	2	67.5	112.5	-3.01455130784351	0.884460385726388	0.216666666666667	0	0	0	223.282874495722	223.382852772251	0.0999782765284181	0.21668408671394
27375	100	31	0	31	2	2	0	1	1	0	2	157.5	112.5	1.8338147071603	-1.8182738614319	0.266666666666667	0	0	0	223.649543917738	223.749532190152	0.0999882724136114	0.26669114548713
27470.75	100	32	0	32	2	2	0	1	1	0	1	112.5	157.5	-1.15501652135636	-2.20498766935914	0.283333333333333	0	0	0	224.032891379669	224.132873069495	0.099981689825654	0.283359189517796
27541.75	100	33	0	33	2	2	0	1	1	0	2	67.5	22.5	-0.0225149006480367	2.12340722352242	0.183333333333333	0	0	0	224.316233258694	224.416211535223	0.0999782765284181	0.183360189199448
27608.25	100	34	0	34	2	2	0	1	1	0	1	22.5	157.5	-1.46587521212823	-0.0912847324689365	0.166666666666667	0	0	0	224.582906605676	224.682888783049	0.0999821773730218	0.166695070452988
27700	100	35	0	35	2	2	0	1	1	0	1	22.5	67.5	-0.861438371372326	2.10815793066054	0.266666666666667	0	0	0	224.949582122732	225.049559911713	0.0999777889810503	0.266693339683115
27770.75	100	36	0	36	2	2	0	1	1	0	2	157.5	112.5	3.03551994273105	2.79060318849317	0.183333333333333	0	0	0	225.232920100447	225.332913980819	0.0999938803724945	0.183360188733786
27866.75	100	37	0	37	2	2	0	1	1	0	1	112.5	67.5	0.327075325416922	1.17862228965607	0.283333333333333	0	0	0	225.616263173986	225.716249740217	0.0999865662306547	0.283349193166941
27929.25	100	38	0	38	2	2	0	1	1	0	2	67.5	22.5	2.02529619869265	0.184888189726991	0.15	0	0	0	225.866284080781	225.966265770607	0.099981689825654	0.150034340564162
28025	100	39	0	39	2	2	0	1	1	0	2	157.5	22.5	-0.425989934275647	-2.8877502922397	0.283333333333333	0	0	0	226.24962715432	226.349609819241	0.0999826649203897	0.283361383713782
28083.5	100	40	0	40	2	2	0	1	1	0	1	112.5	157.5	0.0329265768430038	2.44475738399992	0.133333333333333	0	0	0	226.48299001297	226.582973653451	0.0999836404807866	0.133380193728954
28137.5	100	41	0	41	2	2	0	1	1	0	2	67.5	112.5	1.99779943113989	-2.68130275200178	0.116666666666667	0	0	0	226.699664347339	226.799618730787	0.0999543834477663	0.116690693888813
28196	100	42	0	42	2	2	0	1	1	0	2	67.5	112.5	0.594704906004038	0.622583404749118	0.133333333333333	0	0	0	226.932981370017	227.032960377634	0.0999790076166391	0.133362639229745
28246	100	43	0	43	2	2	0	1	1	0	1	22.5	157.5	0.70739794060766	2.48640032482361	0.1	0	0	0	227.132984734606	227.232970325276	0.0999855906702578	0.100024356972426
28321	100	44	0	44	2	2	0	1	1	0	1	22.5	67.5	1.39713586958784	-0.91242978715926	0.2	0	0	0	227.433010992594	227.532982930075	0.0999719374813139	0.200040667317808
28375	100	45	0	45	2	2	0	1	1	0	2	157.5	112.5	-1.35017671195134	-1.39423655035928	0.116666666666667	0	0	0	227.649667041376	227.749646049459	0.0999790080823004	0.116684111300856
28462.5	100	46	0	46	2	2	0	1	1	0	1	22.5	157.5	-2.41625367643508	2.33165790346377	0.25	0	0	0	227.999687923584	228.099671076518	0.0999831529334188	0.2500418741256
28537.5	100	47	0	47	2	2	0	1	1	0	2	67.5	22.5	2.07945705055992	-1.05826862795107	0.2	0	0	0	228.299695408903	228.399676611181	0.0999812022782862	0.20002433238551
28616.75	100	48	0	48	2	2	0	1	1	0	2	157.5	112.5	-2.01033955829517	0.960520779899165	0.216666666666667	0	0	0	228.616370206233	228.716352871619	0.0999826653860509	0.216693595051765
28666.75	100	49	0	49	2	2	0	1	1	0	1	112.5	157.5	1.97508441055706	-2.09012741402192	0.1	0	0	0	228.816357479431	228.916333561763	0.0999760823324323	0.10000460781157
28741.75	100	50	0	50	2	2	0	1	1	0	2	157.5	22.5	-0.382119000411975	-2.26137378113151	0.2	0	0	0	229.116363258101	229.216348361224	0.09998510312289	0.200029696337879
28829.25	100	51	0	51	2	2	0	1	1	0	1	112.5	157.5	3.03376821651055	-2.78757382158117	0.25	0	0	0	229.466369024012	229.566359978635	0.0999909546226263	0.250020662788302
28891.75	100	52	0	52	2	2	0	1	1	3	1	112.5	157.5	-1.55451968311608	-1.43694058803313	0.15	0	0	0	229.716380178463	229.816366500687	0.0999863222241402	0.15002019982785
28941.75	100	53	0	53	2	2	0	1	1	3	1	112.5	67.5	0.616285911212862	-1.33560919326617	0.1	0	0	0	229.916385980789	230.016368158627	0.0999821778386831	0.100019480101764
29025	100	54	0	54	2	2	0	1	1	3	2	67.5	112.5	0.148152607815801	2.35739140428942	0.233333333333333	0	0	0	230.249727603979	230.349710756447	0.0999831524677575	0.233359445352107
29112.5	100	55	0	55	2	2	0	1	1	2	-1	45	0	0.937404621015685	-1.59642673670266	0.25	0	0	0	230.599738977384	230.699720667209	0.099981689825654	0.250028220936656
29208.5	100	56	0	56	2	2	0	1	1	3	2	157.5	112.5	0.913878967992492	-0.188487714761952	0.283333333333333	0	0	0	230.983107651118	231.083092510235	0.0999848591163754	0.283386983908713
29275	100	57	0	57	2	2	0	1	1	3	2	67.5	22.5	-2.4055410779573	0.564121120468079	0.166666666666667	0	0	0	231.249778803904	231.349760981277	0.0999821773730218	0.166686293669045
29366.75	100	58	0	58	2	2	0	1	1	3	1	22.5	67.5	0.770812954272024	-1.28454265642566	0.266666666666667	0	0	0	231.616455052048	231.716438448988	0.0999833969399333	0.266694070771337
29421	100	59	0	59	2	2	0	1	1	3	2	157.5	22.5	-0.789560882934192	2.68437530949871	0.116666666666667	0	0	0	231.833129630424	231.933110589162	0.099980958737433	0.116691181436181
29500	100	60	0	60	2	2	0	1	1	0	1	22.5	157.5	-1.00479719302733	2.5117684638075	0.216666666666667	0	0	0	232.149787849281	232.249784898944	0.0999970496632159	0.216677260119468
29554.25	100	61	0	61	2	2	0	1	1	0	1	22.5	157.5	1.7775224368856	-2.64269581445037	0.116666666666667	0	0	0	232.366475105751	232.466442410834	0.0999673050828278	0.116690206807107
29650	100	62	0	62	2	2	0	1	1	0	2	157.5	112.5	-2.44445040522542	2.69842923652284	0.283333333333333	1	0	0	232.749818179291	232.849787191022	0.0999690117314458	0.283375768456608
29704.25	100	63	0	63	2	2	0	1	1	0	1	112.5	157.5	-0.0945932390728439	-3.13389214815122	0.116666666666667	0	0	0	232.966498852707	233.06647493504	0.0999760823324323	0.116711661685258
29754.25	100	64	0	64	2	2	0	1	1	0	1	112.5	67.5	-2.18296812568661	-2.81033551651275	0.1	0	0	0	233.16647832375	233.266464158427	0.0999858346767724	0.10000338871032
29804.25	100	65	0	65	2	2	0	1	1	0	2	67.5	22.5	3.04532548065753	-2.23661756612635	0.1	0	0	0	233.366484614089	233.466460208874	0.0999755947850645	0.100020455662161
29871	100	66	0	66	2	2	0	1	1	0	2	67.5	22.5	0.903336099487694	2.00763746531581	0.166666666666667	0	0	0	233.633176003117	233.733160374686	0.0999843715690076	0.166715794242918
29971	100	67	0	67	2	2	0	1	1	0	1	22.5	67.5	1.76858836284182	0.562397047759791	0.3	0	0	0	234.033185658045	234.13316612877	0.0999804707244039	0.300025283358991
30054.25	100	68	0	68	2	2	0	1	1	0	2	67.5	22.5	1.37184552634566	-2.03730021116699	0.233333333333333	0	0	0	234.366507532075	234.466512383893	0.100004851818085	0.233341403305531
30141.75	100	69	0	69	2	2	0	1	1	0	1	112.5	67.5	2.64090435128398	0.0369713685929733	0.25	0	0	0	234.716543043032	234.816505228169	0.0999621851369739	0.250030659139156
30233.5	100	70	0	70	2	2	0	1	1	0	1	112.5	157.5	-0.543255777495629	2.26843113061229	0.266666666666667	0	0	0	235.08321977919	235.18319659261	0.0999768134206533	0.266714551020414
30308.5	100	71	0	71	2	2	0	1	1	0	1	22.5	157.5	-1.28390853790138	-1.86948518775023	0.2	0	0	0	235.383222875651	235.483206272125	0.099983396474272	0.200026283040643
30362.5	100	72	0	72	2	2	0	1	1	0	1	22.5	67.5	2.87961657486261	-2.48084879278312	0.116666666666667	0	0	0	235.599897941574	235.6998796314	0.099981689825654	0.11669166944921
30437.5	100	73	0	73	2	2	0	1	1	0	1	112.5	67.5	0.902225686518108	3.06471787560225	0.2	0	0	0	235.899902256671	235.999868343119	0.0999660864472389	0.200022625271231
30496	100	74	0	74	2	2	0	1	1	0	1	22.5	157.5	1.24534446798456	-2.48133847518286	0.133333333333333	1	0	0	236.13322049845	236.23320316337	0.0999826649203897	0.133352155331522
30591.75	100	75	0	75	2	2	0	1	1	0	1	22.5	157.5	0.454443869137117	-2.4324385327448	0.283333333333333	0	0	0	236.516559427138	236.616538435221	0.0999790080823004	0.283356263767928
30687.5	100	76	0	76	2	2	0	1	1	0	2	67.5	22.5	-1.6755836839484	-0.365715594699567	0.283333333333333	0	0	0	236.899937121663	236.999913935084	0.0999768134206533	0.283398686442524
30758.5	100	77	0	77	2	2	0	1	1	0	1	22.5	67.5	-2.11305129022824	1.74485497859319	0.183333333333333	0	0	0	237.183275343385	237.283256058116	0.0999807147309184	0.183361408300698
30816.75	100	78	0	78	2	2	0	1	1	0	1	22.5	67.5	2.17718613077956	1.27762978600504	0.133333333333333	0	0	0	237.416615527589	237.516594048124	0.0999785205349326	0.133359469473362
30916.75	100	79	0	79	2	2	0	1	1	0	1	22.5	157.5	-0.0474114625066107	-0.471832594525393	0.3	0	0	0	237.816593243275	237.916600045748	0.100006802473217	0.299999195151031
30979.25	100	80	0	80	2	2	0	1	1	0	2	67.5	112.5	0.157366275560391	-0.224402523636081	0.15	0	0	0	238.066623902414	238.166586819105	0.0999629166908562	0.150023856665939
31066.75	100	81	0	81	2	2	0	1	1	0	2	157.5	22.5	-0.02309078868117	-1.08483573091487	0.25	0	0	0	238.416616259143	238.516590634827	0.0999743756838143	0.250029440037906
31133.5	100	82	0	82	2	2	0	1	1	0	2	157.5	112.5	-2.61585335273727	0.945562513254117	0.166666666666667	0	0	0	238.683282535523	238.78326544445	0.0999829089269042	0.166691900696605
31221	100	83	0	83	2	2	0	1	1	0	2	67.5	112.5	1.90373887981715	0.276973948458791	0.25	0	0	0	239.033305612393	239.133284376469	0.0999787640757859	0.250040167942643
31275	100	84	0	84	2	2	0	1	1	0	1	112.5	67.5	1.88520390047842	-2.79334089941456	0.116666666666667	0	0	0	239.249993112404	239.349981141277	0.0999880288727582	0.11670873593539
31341.75	100	85	0	85	2	2	0	1	1	0	1	112.5	67.5	-2.56639619635044	1.43137641553602	0.166666666666667	0	0	0	239.516667922493	239.616639128421	0.0999712059274316	0.166686781216413
31441.75	100	86	0	86	2	2	0	1	1	0	1	112.5	157.5	-2.25195183540066	-2.3501506526242	0.3	0	0	0	239.916664167773	240.016659754794	0.0999955870211124	0.300025039352477
31496	100	87	0	87	2	2	0	1	1	0	2	157.5	22.5	-1.8009696771295	2.48601418683359	0.116666666666667	0	0	0	240.133351911791	240.233317997772	0.0999660859815776	0.116692156996578
31571	100	88	0	88	2	2	0	1	1	0	2	157.5	112.5	-0.352620523703417	0.526564025914559	0.2	0	0	0	240.433341842145	240.533313292079	0.0999714499339461	0.200023844372481
31662.75	100	89	0	89	2	2	0	1	1	0	1	112.5	67.5	-0.712005764642565	-1.41480747782021	0.266666666666667	0	0	0	240.800010776613	240.90001757862	0.100006802007556	0.266697484534234
31741.75	100	90	0	90	2	2	0	1	1	0	2	67.5	22.5	-1.62459807673943	-0.647641930240526	0.216666666666667	0	0	0	241.116695570294	241.21669310797	0.099997537676245	0.21667799167335
31829.25	100	91	0	91	2	2	0	1	1	0	2	67.5	22.5	-0.062806726971417	-1.30855422812354	0.25	0	0	0	241.466723767109	241.566702043638	0.0999782765284181	0.250030659139156
31929.25	100	92	0	92	2	2	0	1	1	0	1	112.5	67.5	1.14981551297444	2.44813156515522	0.3	0	0	0	241.866717086639	241.966684147716	0.0999670610763133	0.300015043001622
32004.25	100	93	0	93	2	2	0	1	1	0	1	112.5	157.5	2.31032857315177	1.05857136430341	0.2	0	0	0	242.166739443783	242.266721865162	0.0999824213795364	0.200055296067148
32087.75	100	94	0	94	2	2	0	1	1	3	1	22.5	67.5	1.07858383858175	-0.898252870181178	0.233333333333333	0	0	0	242.500069363974	242.600049347151	0.099979983177036	0.233347498811781
32150.25	100	95	0	95	2	2	0	1	1	3	1	112.5	67.5	1.49152100698913	2.20532750389858	0.15	0	0	0	242.75008758856	242.850074642338	0.0999870537780225	0.150038241408765
32250.25	100	96	0	96	2	2	0	1	1	3	2	157.5	112.5	-0.252693711533114	1.5789277400928	0.3	0	0	0	243.150079445448	243.250052846037	0.0999734005890787	0.300004803109914
32325.25	100	97	0	97	2	2	0	1	1	1	-1	0	135	-0.504067616578326	1.94136366426953	0.2	0	0	0	243.450084736105	243.550064231735	0.0999794956296682	0.200031890068203
32404.25	100	98	0	98	2	2	0	1	1	3	2	67.5	112.5	1.10424170865857	2.89686451869881	0.216666666666667	0	0	0	243.766756364144	243.866739517078	0.0999831529334188	0.216692132409662
32458.5	100	99	0	99	2	2	0	1	1	3	1	112.5	157.5	-0.205940641873523	2.90544194650565	0.116666666666667	0	0	0	243.983433380723	244.083412144799	0.0999787640757859	0.116693863645196
32554.25	100	100	0	100	2	2	0	1	1	3	2	67.5	22.5	-0.0927575970665444	-1.53131972253633	0.283333333333333	0	0	0	244.36677401606	244.466782281175	0.100008265115321	0.28336187126115
32621	100	101	0	101	2	2	0	1	1	3	1	22.5	157.5	-2.41724701796869	1.99425890365397	0.166666666666667	0	0	0	244.633476376534	244.733424908482	0.09994853194803	0.166694095358253
32671	100	102	0	102	2	2	0	1	1	0	2	67.5	112.5	2.17509410577416	0.280365577162392	0.1	0	0	0	244.833449020982	244.933434612118	0.0999855911359191	0.10002411250025
32758.5	100	103	0	103	2	2	0	1	1	0	2	157.5	112.5	-2.00857033151771	-1.34044233585598	0.25	0	0	0	245.183493552729	245.283446473069	0.0999529203400016	0.25005894061178
32837.75	100	104	0	104	2	2	0	1	1	0	1	22.5	67.5	1.6003249959755	2.19728731173557	0.216666666666667	0	0	0	245.500139337499	245.600113469176	0.0999741316772997	0.216692864429206
32916.75	100	105	0	105	2	2	0	1	1	0	1	112.5	67.5	-2.2335248305212	2.58310007906088	0.216666666666667	0	0	0	245.816809990443	245.916826057248	0.100016066804528	0.216696521267295
32975.25	100	106	0	106	2	2	0	1	1	0	1	112.5	67.5	-1.82062571867056	-0.181114686608544	0.133333333333333	1	0	0	246.050176505931	246.150137715973	0.0999612100422382	0.133350448682904
33075.25	100	107	0	107	2	2	0	1	1	0	2	157.5	22.5	0.638145578337741	-2.05618975073518	0.3	0	0	0	246.450167875271	246.550170776434	0.100002901162952	0.300030159298331
33137.75	100	108	0	108	2	2	0	1	1	0	1	112.5	67.5	1.49583060181883	1.17824673825271	0.15	0	0	0	246.700194877107	246.800176810939	0.0999819338321686	0.150024100672454
33204.25	100	109	0	109	2	2	0	1	1	0	1	22.5	67.5	-1.45586557392429	-0.0913638914060009	0.166666666666667	0	0	0	246.966866761446	247.066850645468	0.0999838840216398	0.166689950507134
33266.75	100	110	0	110	2	2	0	1	1	0	1	112.5	157.5	-1.71603941079259	0.142867974508383	0.15	0	0	0	247.216859629843	247.316856923513	0.0999972936697304	0.150008984375745
33316.75	100	111	0	111	2	2	0	1	1	0	1	22.5	67.5	1.00919191208054	-3.03950671824051	0.1	0	0	0	247.416878842283	247.516847366467	0.099968524184078	0.100021918769926
33396	100	112	0	112	2	2	0	1	1	0	2	157.5	22.5	-0.909087831963082	0.315150137133187	0.216666666666667	0	0	0	247.73355997866	247.833538255189	0.0999782765284181	0.216712612193078
33491.75	100	113	0	113	2	2	0	1	1	0	1	22.5	67.5	-2.42793829459377	2.20816276087667	0.283333333333333	0	0	0	248.116879646666	248.216857679188	0.0999780325219035	0.283341391477734
33550.25	100	114	0	114	2	2	0	1	1	0	2	157.5	112.5	0.458452337950927	-0.49095286874158	0.133333333333333	0	0	0	248.350216905121	248.450193719007	0.0999768138863146	0.133359225932509
33650.25	100	115	0	115	2	2	0	1	1	0	2	157.5	112.5	-0.0507403973056659	1.96051341097758	0.3	0	0	0	248.750225584954	248.850220684428	0.0999950994737446	0.300031865946949
33721	100	116	0	116	2	2	0	1	1	0	2	67.5	112.5	-2.51985752801728	2.73328064359897	0.183333333333333	0	0	0	249.033589894418	249.133573046885	0.0999831524677575	0.183369209989905
33787.75	100	117	0	117	2	2	0	1	1	0	2	157.5	22.5	-2.97724274188259	-2.24937842788366	0.166666666666667	0	0	0	249.300267873798	249.400224938989	0.0999570651911199	0.166694826912135
33871	100	118	0	118	2	2	0	1	1	0	1	112.5	157.5	-2.13284548165271	-0.708933330877824	0.233333333333333	0	0	0	249.63358023949	249.73355997866	0.0999797391705215	0.233355300500989
33937.75	100	119	0	119	2	2	0	1	1	0	1	112.5	157.5	-2.3479972919348	2.24302255634774	0.166666666666667	0	0	0	249.900253830478	250.000239177141	0.0999853466637433	0.166693851817399
34033.5	100	120	0	120	2	2	0	1	1	0	2	67.5	112.5	-3.07610567883784	-2.46137246655751	0.283333333333333	0	0	0	250.283598122653	250.383578349836	0.0999802271835506	0.283358945511281
34125.25	100	121	0	121	2	2	0	1	1	0	2	67.5	22.5	1.25454877945779	0.457956953248547	0.266666666666667	0	0	0	250.650280222762	250.750259230845	0.0999790080823004	0.266701872926205
34179.25	100	122	0	122	2	2	0	1	1	0	2	67.5	22.5	-2.23974799817073	-0.312655814904764	0.116666666666667	0	0	0	250.866948705632	250.96693259012	0.0999838844873011	0.116689474787563
34266.75	100	123	0	123	2	2	0	1	1	0	1	22.5	67.5	0.36516940474031	-0.060350624748446	0.25	0	0	0	251.216957885306	251.316935674287	0.0999777889810503	0.250025295186788
34346	100	124	0	124	2	2	0	1	1	3	2	157.5	22.5	0.498802695470837	2.716006882737	0.216666666666667	0	0	0	251.533645604737	251.633618029766	0.0999724250286818	0.216709930449724
34412.75	100	125	0	125	2	2	0	1	1	3	2	67.5	112.5	-2.96984035904845	-1.71083496097704	0.166666666666667	0	0	0	251.800306517631	251.90031258855	0.100006070919335	0.166688487865031
34508.5	100	126	0	126	2	2	0	1	1	3	1	112.5	67.5	0.591141048859478	-1.34035698277713	0.283333333333333	0	0	0	252.183674703352	252.283655174077	0.0999804707244039	0.283362114802003
34608.5	100	127	0	127	2	2	0	1	1	3	1	112.5	157.5	-2.74003690737113	-1.58962732320974	0.3	0	0	0	252.58368728403	252.683674825355	0.0999875413253903	0.300032109953463
38721.25	100	128	1	0	1	1	90	1	1	3	1	22.5	67.5	-1.03516826079747	-0.955941154426239	0.2	0	0	0	269.034114328679	269.134096018504	0.099981689825654	-1
38796.25	100	129	1	1	1	1	90	1	1	3	1	112.5	67.5	2.11786467308042	0.561945399132616	0.2	0	0	0	269.334146682173	269.43410886731	0.0999621851369739	0.200050663668662
38871.25	100	130	1	2	1	1	90	1	1	3	2	157.5	112.5	2.54253869069607	2.39203376597675	0.2	0	0	0	269.63412807975	269.734112207778	0.0999841280281544	0.200019212439656
38946.25	100	131	1	3	1	1	90	1	1	3	2	157.5	22.5	0.607907353895068	2.07053482135908	0.2	0	0	0	269.934137515258	270.034142610617	0.100005095358938	0.200025307480246
39021.25	100	132	1	4	1	1	90	1	1	0	1	22.5	157.5	1.78242060153087	2.97629752943174	0.2	0	0	0	270.234163285699	270.334147657733	0.0999843720346689	0.20002067508176
39096.25	100	133	1	5	1	1	90	1	1	0	1	112.5	157.5	2.2735369936847	2.54328219438009	0.2	0	0	0	270.534146389924	270.634125397541	0.0999790076166391	0.199998732190579
39171.25	100	134	1	6	1	1	90	1	1	0	2	157.5	22.5	-0.0492144113947477	-1.0673817382202	0.2	0	0	0	270.834180450067	270.934164090082	0.0999836400151253	0.200055052526295
39246.25	100	135	1	7	1	1	90	1	1	0	2	67.5	112.5	-1.36525321848468	1.07379727352024	0.2	0	0	0	271.134187690914	271.234170112293	0.0999824213795364	0.200023600831628
39321.25	100	136	1	8	1	1	90	1	1	0	1	22.5	157.5	2.15806853490103	-3.07022634626924	0.2	0	0	0	271.434199320618	271.534179547802	0.0999802271835506	0.20002920832485
39396.25	100	137	1	9	1	1	90	1	1	0	2	67.5	112.5	-0.280812741458177	1.83278286982949	0.2	0	0	0	271.734204367734	271.834167527966	0.0999631602317095	0.200024819932878
39471.25	100	138	1	10	1	1	90	1	1	0	2	157.5	22.5	1.87166879820776	1.46616616245462	0.2	0	0	0	272.034194298089	272.13416721113	0.0999729130417109	0.200026770122349
39546.25	100	139	1	11	1	1	90	1	1	0	1	112.5	157.5	0.235292250315502	-2.72237610235005	0.2	0	0	0	272.334199832752	272.434173720889	0.0999738881364465	0.200032621622086
39621.25	100	140	1	12	1	1	90	1	1	0	2	157.5	112.5	-0.619430309448405	2.27765334899501	0.2	0	0	0	272.634198784363	272.73417876754	0.099979983177036	0.200025063473731
39696.25	100	141	1	13	1	1	90	1	1	0	1	112.5	67.5	3.05439097664245	3.10726644873512	0.2	0	0	0	272.934205050115	273.034188934602	0.0999838844873011	0.200026282574981
39771.25	100	142	1	14	1	1	90	1	1	0	1	112.5	67.5	0.174268012064124	-1.40778185702698	0.2	0	0	0	273.234218386468	273.334232991096	0.100014604628086	0.200029451865703
39846.25	100	143	1	15	1	1	90	1	1	0	2	67.5	112.5	-2.65847519431286	0.419344899176821	0.2	0	0	0	273.534254397266	273.63423486799	0.0999804707244039	0.200021406169981
39921.25	100	144	1	16	1	1	90	1	1	0	2	67.5	112.5	2.27024790897749	-3.11645578118303	0.2	0	0	0	273.834262370132	273.934246741701	0.0999843715690076	0.200027502141893
39996.25	100	145	1	17	1	1	90	1	1	0	1	112.5	157.5	2.3634020181486	-2.83715049382899	0.2	0	0	0	274.134245961439	274.234225701075	0.0999797396361828	0.199999219737947
40071.25	100	146	1	18	1	1	90	1	1	0	2	67.5	112.5	-1.83068403454755	-1.29682222543021	0.2	0	0	0	274.434248813894	274.534236355685	0.0999875417910516	0.200023112818599
40146.25	100	147	1	19	1	1	90	1	1	0	1	22.5	67.5	-1.31303979749237	0.25245643967811	0.2	0	0	0	274.734261906706	274.834245059639	0.0999831529334188	0.200025551021099
40221.25	100	148	1	20	1	1	90	1	1	0	1	22.5	67.5	-2.96744652754484	1.19042459833619	0.2	1	0	0	275.034269391559	275.134248155635	0.0999787640757859	0.200024331919849
40296.25	100	149	1	21	1	1	90	1	1	0	1	112.5	67.5	-2.61051250905808	-1.72900455288794	0.2	0	0	0	275.334273219574	275.4342549094	0.099981689825654	0.200025063939393
40371.25	100	150	1	22	1	1	90	1	1	0	2	157.5	22.5	-2.19034672638514	-1.87562706857225	0.2	0	0	0	275.634279729333	275.734268001746	0.0999882724136114	0.200024819932878
40446.25	100	151	1	23	1	1	90	1	1	0	2	157.5	112.5	1.53675235568632	0.171530692493437	0.2	0	0	0	275.934301111382	276.034281094559	0.099979983177036	0.200033109635115
40521.25	100	152	1	24	1	1	90	1	1	3	1	22.5	157.5	2.99469461494969	0.625528196053119	0.2	0	0	0	276.234302257188	276.334284678567	0.0999824213795364	0.200021162629128
40596.25	100	153	1	25	1	1	90	1	1	3	2	67.5	22.5	-1.81477856448135	-1.03418112531279	0.2	0	0	0	276.534333635587	276.634317276068	0.0999836404807866	0.200048957020044
40671.25	100	154	1	26	1	1	90	1	1	3	1	22.5	67.5	1.31387098642985	-2.27983867132343	0.2	0	0	0	276.834345508832	276.934310376178	0.0999648673459888	0.200028232764453
40746.25	100	155	1	27	1	1	90	1	1	2	-1	135	90	-1.69653854484678	-0.0992790776790953	0.2	0	0	0	277.1343547008	277.234329564031	0.0999748632311821	0.200044324621558
40821.25	100	156	1	28	1	1	90	1	1	3	2	157.5	22.5	0.291085529643428	0.421806130318109	0.2	0	0	0	277.434345362708	277.534339730628	0.0999943679198623	0.200015798676759
40896.25	100	157	1	29	1	1	90	1	1	3	2	157.5	112.5	0.501566166774494	-1.63450163435268	0.2	0	0	0	277.734365525655	277.834348678589	0.0999831529334188	0.200025795027614
40971.25	100	158	1	30	1	1	90	1	1	3	1	112.5	67.5	-0.490092496952876	2.87376355652431	0.2	0	0	0	278.034373254515	278.134346411098	0.0999731565825641	0.200024575926363
41046.25	100	159	1	31	1	1	90	1	1	3	1	112.5	157.5	0.195302401908342	-0.237577794622455	0.2	0	0	0	278.33437903272	278.434363404755	0.0999843720346689	0.200032621622086
41121.25	100	160	1	32	1	1	90	1	1	0	1	22.5	157.5	-2.46206107805101	-2.97182820903409	0.2	0	0	0	278.634389443323	278.734371377155	0.0999819338321686	0.200026038568467
41196.25	100	161	1	33	1	1	90	1	1	0	1	112.5	157.5	1.23527634406522	-0.987860170654983	0.2	0	0	0	278.934400829487	279.034385445062	0.0999846155755222	0.200029452331364
41271.25	100	162	1	34	1	1	90	1	1	0	1	22.5	67.5	2.81091857140991	1.33285401361991	0.2	0	0	0	279.234378325753	279.334373669233	0.0999953434802592	0.199992880690843
41346.25	100	163	1	35	1	1	90	1	1	0	2	157.5	112.5	1.38067499302131	0.274696422868723	0.2	0	0	0	279.534418237396	279.634400171228	0.0999819338321686	0.200044568162411
41421.25	100	164	1	36	1	1	90	1	1	0	1	22.5	67.5	0.880664539509928	0.429039710844259	0.2	0	0	0	279.834404754918	279.934406680986	0.100001926068217	0.200004583690315
41496.25	100	165	1	37	1	1	90	1	1	0	1	112.5	67.5	-1.96536369675165	-2.96139602760829	0.2	0	0	0	280.134412239771	280.234410996083	0.0999987563118339	0.200005558785051
41571.25	100	166	1	38	1	1	90	1	1	0	1	112.5	157.5	-2.27845699629316	-0.83504962369968	0.2	0	0	0	280.434434596915	280.534418481402	0.0999838844873011	0.200023600831628
41646.25	100	167	1	39	1	1	90	1	1	0	1	22.5	157.5	2.90801664875317	3.04125413075401	0.2	0	0	0	280.734455247875	280.834405730013	0.0999504821375012	0.200036766473204
41721.25	100	168	1	40	1	1	90	1	1	0	2	157.5	112.5	-2.08945588794691	-0.698324602501619	0.2	0	0	0	281.034428599291	281.134438815061	0.100010215770453	0.200022869277745
41796.25	100	169	1	41	1	1	90	1	1	0	2	157.5	22.5	1.91468785878029	-1.75780268197694	0.2	0	0	0	281.33446192788	281.434429964516	0.0999680366367102	0.200023112818599
41871.25	100	170	1	42	1	1	90	1	1	0	2	157.5	22.5	-1.59636660928728	1.53371759726182	0.2	0	0	0	281.634477458894	281.734457198065	0.0999797391705215	0.200047494377941
41946.25	100	171	1	43	1	1	90	1	1	0	1	22.5	157.5	1.80837007491836	-3.12238837679711	0.2	0	0	0	281.934481042903	282.03444907954	0.0999680366367102	0.200023844838142
42021.25	100	172	1	44	1	1	90	1	1	0	1	22.5	157.5	2.41552333658713	-2.80082889505186	0.2	0	0	0	282.234488040209	282.334468998481	0.0999809582717717	0.20003896066919
42096.25	100	173	1	45	1	1	90	1	1	0	2	157.5	22.5	-2.63935714524766	0.55211084488254	0.2	0	0	0	282.534476263914	282.634453321807	0.0999770578928292	0.200007265433669
42171.25	100	174	1	46	1	1	90	1	1	0	1	112.5	67.5	-0.779715725498104	-2.50121707433644	0.2	0	0	0	282.834472533781	282.934460562654	0.0999880288727582	0.200019211973995
42246.25	100	175	1	47	1	1	90	1	1	0	1	112.5	67.5	-1.07339118983586	-1.17325121846815	0.2	0	0	0	283.134484163485	283.234468291514	0.0999841280281544	0.200023600831628
42321.25	100	176	1	48	1	1	90	1	1	0	2	157.5	112.5	2.10591253530263	-3.04289118803913	0.2	0	0	0	283.434491648339	283.534477727022	0.0999860786832869	0.200023356825113
42396.25	100	177	1	49	1	1	90	1	1	0	2	67.5	22.5	-2.46596644983501	2.95785920249665	0.2	0	0	0	283.734533510637	283.834513493814	0.099979983177036	0.200055783614516
42471.25	100	178	1	50	1	1	90	1	1	0	1	22.5	67.5	0.466311381493418	-2.71297723549254	0.2	0	0	0	284.034534168895	284.134518296923	0.0999841280281544	0.20002067508176
42546.25	100	179	1	51	1	1	90	1	1	0	1	22.5	157.5	-2.00266211841226	-2.40378566833679	0.2	0	0	0	284.334532632958	284.434526269324	0.0999936363659799	0.200014336034656
42621.25	100	180	1	52	1	1	90	1	1	0	2	67.5	112.5	2.21514618693946	-0.294229705179697	0.2	0	0	0	284.634522563778	284.734507422894	0.0999848591163754	0.19999629445374
42696.25	100	181	1	53	1	1	90	1	1	0	2	157.5	112.5	1.3472905749532	1.06086129620284	0.2	0	0	0	284.934560524765	285.034527829848	0.0999673050828278	0.200053101871163
42771.25	100	182	1	54	1	1	90	1	1	0	2	67.5	112.5	1.42141858017497	1.8253776539095	0.2	0	0	0	285.234539240133	285.334524343256	0.09998510312289	0.200011410284787
42846.25	100	183	1	55	1	1	90	1	1	0	1	112.5	157.5	0.0605790001503541	-2.06737428178842	0.2	0	0	0	285.534551357385	285.63453280367	0.0999814462848008	0.200027014128864
42921.25	100	184	1	56	1	1	90	1	1	0	2	157.5	22.5	-0.448294871214655	-0.291097005944759	0.2	0	0	0	285.834585417528	285.934569302015	0.0999838844873011	0.200052613858134
42996.25	100	185	1	57	1	1	90	1	1	0	2	157.5	22.5	-1.84333530103341	-0.616988729955438	0.2	0	0	0	286.134594365489	286.234574348666	0.099979983177036	0.200025063473731
43071.25	100	186	1	58	1	1	90	1	1	0	1	22.5	67.5	-0.541073052828795	-1.99357027749786	0.2	0	0	0	286.434599168599	286.534563791938	0.0999646233394742	0.200024819932878
43146.25	100	187	1	59	1	1	90	1	1	0	1	112.5	157.5	-1.92133455980727	2.7033150138615	0.2	0	0	0	286.734588367864	286.834568107035	0.0999797391705215	0.200024575926363
43221.25	100	188	1	60	1	1	90	1	1	0	2	67.5	112.5	3.0392634737869	0.17761903332392	0.2	0	0	0	287.034604873508	287.134586075787	0.0999812022782862	0.200036766473204
43296.25	100	189	1	61	1	1	90	1	1	0	1	112.5	67.5	1.27533423905498	-0.953693448811041	0.2	0	0	0	287.334607482422	287.434610140044	0.100002657622099	0.200021406635642
43371.25	100	190	1	62	1	1	90	1	1	0	1	112.5	157.5	-1.36252391950175	1.91403008263357	0.2	0	0	0	287.634606434032	287.734595438465	0.0999890044331551	0.199996293988079
43446.25	100	191	1	63	1	1	90	1	1	0	2	67.5	22.5	1.41731871196475	-2.57461328564392	0.2	0	0	0	287.934619038831	288.034600972664	0.0999819338321686	0.200023600365967
43521.25	100	192	1	64	1	1	90	1	1	0	2	157.5	112.5	1.13143135704962	-1.25742698261003	0.2	0	0	0	288.23463140009	288.334603337571	0.0999719374813139	0.2000304274261
43596.25	100	193	1	65	1	1	90	1	1	0	2	157.5	22.5	2.39270373546839	-1.87182212707243	0.2	0	0	0	288.53463132726	288.634608384687	0.0999770574271679	0.200027989689261
43671.25	100	194	1	66	1	1	90	1	1	0	2	157.5	112.5	0.0399817288604845	2.48408659521608	0.2	0	0	0	288.834636617918	288.934626840986	0.0999902230687439	0.200028233230114
43746.25	100	195	1	67	1	1	90	1	1	0	1	112.5	67.5	-1.01041895725696	-1.99495809200883	0.2	0	0	0	289.134646296967	289.234626280144	0.099979983177036	0.20001945598051
43821.25	100	196	1	68	1	1	90	1	1	0	1	22.5	157.5	2.90517469605066	-1.63267067830297	0.2	0	0	0	289.434658414219	289.534638884943	0.0999804707244039	0.200032134074718
43896.25	100	197	1	69	1	1	90	1	1	0	2	157.5	112.5	0.833893792808088	1.37751724220904	0.2	0	0	0	289.734693693463	289.83465392841	0.0999602349475026	0.200054808519781
43971.25	100	198	1	70	1	1	90	1	1	0	1	22.5	67.5	0.586602684887154	2.58203380357446	0.2	0	0	0	290.034700203221	290.134682868607	0.0999826653860509	0.200046274811029
44046.25	100	199	1	71	1	1	90	1	1	0	1	112.5	67.5	0.527699775694879	1.97321058557707	0.2	0	0	0	290.334684526082	290.434667679016	0.0999831529334188	0.200001657474786
44121.25	100	200	1	72	1	1	90	1	1	0	1	22.5	67.5	-1.0331635913043	-2.4847462616034	0.2	0	0	0	290.634686647449	290.734703933354	0.100017285905778	0.200018968433142
44196.25	100	201	1	73	1	1	90	1	1	0	2	67.5	112.5	-1.63859550223519	1.25166049086151	0.2	0	0	0	290.934732410591	291.034710199572	0.0999777889810503	0.200028477236629
44271.25	100	202	1	74	1	1	90	1	1	0	1	22.5	67.5	-0.899981670830848	-2.76650713290071	0.2	0	0	0	291.234734775499	291.334717196878	0.0999824213795364	0.200024575926363
44346.25	100	203	1	75	1	1	90	1	1	0	2	67.5	22.5	-0.573928671570821	-0.966844669220544	0.2	0	0	0	291.534717391711	291.634691767395	0.0999743756838143	0.200000194832683
44421.25	100	204	1	76	1	1	90	1	1	0	2	67.5	22.5	2.01724632356883	-2.58608371953633	0.2	0	0	0	291.83471804997	291.934701202903	0.0999831529334188	0.200026282574981
44496.25	100	205	1	77	1	1	90	1	1	0	1	112.5	157.5	-0.230664316928002	-0.659521029099909	0.2	0	0	0	292.134727241937	292.234706006013	0.0999787640757859	0.200026039034128
44571.25	100	206	1	78	1	1	90	1	1	0	2	67.5	22.5	-1.67918392146962	2.26167242688723	0.2	0	0	0	292.434740334284	292.534722268116	0.0999819338321686	0.200034328270704
44646.25	100	207	1	79	1	1	90	1	1	3	1	112.5	67.5	-2.41479567391265	-2.44516303382024	0.2	0	0	0	292.734776588622	292.834753402509	0.0999768138863146	0.200054320506752
44721.25	100	208	1	80	1	1	90	1	1	3	1	112.5	157.5	-2.32882675768706	2.40007808228907	0.2	0	0	0	293.034758961294	293.134736506268	0.0999775449745357	0.200005558785051
44796.25	100	209	1	81	1	1	90	1	1	3	2	67.5	112.5	2.48896228535629	-1.54075801634992	0.2	0	0	0	293.334756693803	293.43474252848	0.0999858346767724	0.200020187534392
44871.25	100	210	1	82	1	1	90	1	1	1	-1	90	45	-2.60072845828588	-1.31225217107015	0.2	0	0	0	293.634781489149	293.73475732794	0.099975838791579	0.20003896066919
44946.25	100	211	1	83	1	1	90	1	1	3	2	67.5	22.5	0.206017762810906	-2.3748311223598	0.2	1	0.291964205913246	1	293.934804578312	294.034791875631	0.0999872973188758	0.200047250371426
45021.25	100	212	1	84	1	1	90	1	1	3	1	22.5	157.5	-0.541385916239387	0.837704354672848	0.2	0	0	0	294.234814744908	294.33480253024	0.0999877853319049	0.200022869277745
45096.25	100	213	1	85	1	1	90	1	1	3	2	157.5	112.5	-0.0724717806733151	-0.314540475152329	0.2	0	0	0	294.534826131072	294.634808308445	0.0999821773730218	0.200023600831628
45171.25	100	214	1	86	1	1	90	1	1	3	2	157.5	22.5	0.608847820338162	-1.65860701387223	0.2	0	0	0	294.834822156932	294.934816768393	0.0999946114607155	0.200013848487288
45246.25	100	215	1	87	1	1	90	1	1	0	1	112.5	157.5	-2.47722450569422	1.04367264641221	0.2	0	0	0	295.13484231988	295.23482596036	0.0999836404807866	0.20002555148676
45321.25	100	216	1	88	1	1	90	1	1	0	1	22.5	67.5	0.932120620198519	-2.86316901898321	0.2	0	0	0	295.434828593396	295.534832957666	0.100004364270717	0.200002633035183
45396.25	100	217	1	89	1	1	90	1	1	0	1	22.5	67.5	1.41041137651799	-0.966367246159975	0.2	0	0	0	295.734858996235	295.834838004317	0.0999790080823004	0.200026038568467
45471.25	100	218	1	90	1	1	90	1	1	0	1	112.5	157.5	-1.13937931806575	1.55072086460371	0.2	0	0	0	296.034868188202	296.134835980833	0.0999677926301956	0.200030183885247
45546.25	100	219	1	91	1	1	90	1	1	0	1	112.5	67.5	0.662361236383176	2.38134633847179	0.2	0	0	0	296.334850072861	296.43483249424	0.0999824213795364	0.200014092028141
45621.25	100	220	1	92	1	1	90	1	1	0	2	67.5	22.5	-2.45316880683941	-1.20590948855154	0.2	0	0	0	296.634868773166	296.734843880404	0.0999751072376966	0.200036278925836
45696.25	100	221	1	93	1	1	90	1	1	0	2	157.5	22.5	2.60094774884269	0.254577303303068	0.2	0	0	0	296.93487138208	297.034851121251	0.0999797391705215	0.200027501676232
45771.25	100	222	1	94	1	1	90	1	1	0	2	67.5	22.5	2.88857021564697	2.91302587923443	0.2	0	0	0	297.234877404291	297.334864214063	0.099986809771508	0.200026283040643
45846.25	100	223	1	95	1	1	90	1	1	0	1	112.5	67.5	1.91376391461229	-3.12186465901263	0.2	0	0	0	297.534899029881	297.634857314173	0.0999582842923701	0.200034815818071
45921.25	100	224	1	96	1	1	90	1	1	0	1	112.5	67.5	1.11763774759403	-1.95836242076566	0.2	0	0	0	297.834880427457	297.934862117283	0.099981689825654	0.20002311328426
45996.25	100	225	1	97	1	1	90	1	1	0	2	67.5	22.5	0.712129768273141	-2.62573970939596	0.2	0	0	0	298.134888887405	298.234871552791	0.0999826653860509	0.200026770122349
46071.25	100	226	1	98	1	1	90	1	1	0	2	67.5	112.5	-1.99947095204352	-0.736462573375599	0.2	0	0	0	298.434899298009	298.534894153941	0.0999948559328914	0.200027745217085
46146.25	100	227	1	99	1	1	90	1	1	0	1	22.5	157.5	1.56051080178567	3.03023271356432	0.2	0	0	0	298.73494189186	298.834914804436	0.0999729125760496	0.200047737918794
46221.25	100	228	1	100	1	1	90	1	1	0	2	67.5	22.5	1.88850931867348	-2.11243724498789	0.2	0	0	0	299.034940111917	299.134951790329	0.100011678412557	0.200025307480246
46296.25	100	229	1	101	1	1	90	1	1	0	2	67.5	22.5	1.65314521326771	-2.39750383158497	0.2	0	0	0	299.334937112872	299.434939282946	0.100002170074731	0.199985322542489
46371.25	100	230	1	102	1	1	90	1	1	0	2	157.5	112.5	-2.95265360293996	1.83908609521384	0.2	0	0	0	299.634938502684	299.734917023219	0.0999785205349326	0.199999219737947
46446.25	100	231	1	103	1	1	90	1	1	0	1	22.5	157.5	-0.321461536186123	-2.16070409243025	0.2	0	0	0	299.934942818247	300.034931334667	0.099988516420126	0.200025795027614
46521.25	100	232	1	104	1	1	90	1	1	0	1	22.5	157.5	2.20677349462035	1.09644445669862	0.2	0	0	0	300.234932749067	300.334951497614	0.100018748547882	0.200001414399594
46596.25	100	233	1	105	1	1	90	1	1	0	1	22.5	67.5	-0.454434602289408	-1.4828655484243	0.2	0	0	0	300.534982656594	300.63495239988	0.0999697432853281	0.200031158979982
46671.25	100	234	1	106	1	1	90	1	1	0	2	67.5	112.5	-2.58259754806948	-0.333425594264526	0.2	0	0	0	300.834966979921	300.934946719091	0.0999797391705215	0.20001458004117
46746.25	100	235	1	107	1	1	90	1	1	0	1	22.5	157.5	1.50671815226643	-0.241581047687074	0.2	0	0	0	301.134969588369	301.234951278195	0.099981689825654	0.200022869277745
46821.25	100	236	1	108	1	1	90	1	1	0	2	67.5	22.5	0.627135735259159	1.30823615370635	0.2	0	0	0	301.434978292324	301.534964127	0.0999858346767724	0.200027014128864
46896.25	100	237	1	109	1	1	90	1	1	0	2	157.5	112.5	-2.15997550154116	-1.6906638049509	0.2	0	0	0	301.73498626519	301.83496576082	0.0999794956296682	0.200022138189524
46971.25	100	238	1	110	1	1	90	1	1	0	1	112.5	67.5	1.99105107253429	2.68554002260489	0.2	0	0	0	302.034995456692	302.134976171423	0.0999807147309184	0.200029695872217
47046.25	100	239	1	111	1	1	90	1	1	0	2	67.5	22.5	1.80746745555841	-0.266545338659211	0.2	0	0	0	302.33500196645	302.434985119384	0.0999831529334188	0.200025795027614
47121.25	100	240	1	112	1	1	90	1	1	0	2	157.5	112.5	-1.09185343596299	-0.0676625015615553	0.2	0	0	0	302.635038708337	302.735003088135	0.0999643797986209	0.200053588952869
47196.25	100	241	1	113	1	1	90	1	1	0	1	22.5	157.5	-2.73354609277754	-2.12358379756475	0.2	0	0	0	302.935025957413	303.035005209036	0.0999792516231537	0.200022869277745
47271.25	100	242	1	114	1	1	90	1	1	0	2	67.5	112.5	2.02363284789871	-0.405946009747962	0.2	0	0	0	303.235029784963	303.335012937896	0.0999831529334188	0.200024575926363
47346.25	100	243	1	115	1	1	90	1	1	0	1	112.5	157.5	1.42596595291965	1.82513319246528	0.2	0	0	0	303.535035807174	303.635049679782	0.100013872608542	0.200022869277745
47421.25	100	244	1	116	1	1	90	1	1	0	2	157.5	22.5	0.406022439334126	2.14858236630113	0.2	0	0	0	303.835072793067	303.935030589812	0.0999577967450023	0.20002311328426
47496.25	100	245	1	117	1	1	90	1	1	0	2	157.5	112.5	-2.83424728992272	-0.934465282225847	0.2	0	0	0	304.135042487644	304.235031491611	0.0999890039674938	0.200011897832155
47571.25	100	246	1	118	1	1	90	1	1	0	2	157.5	22.5	-2.07561252204291	-2.73505835409821	0.2	0	0	0	304.435062894598	304.535043608863	0.0999807142652571	0.200031402986497
47646.25	100	247	1	119	1	1	90	1	1	0	2	67.5	112.5	-2.18590385010615	0.224020935188036	0.2	0	0	0	304.73507232964	304.835051094182	0.0999787645414472	0.200028720777482
47721.25	100	248	1	120	1	1	90	1	1	0	1	112.5	157.5	3.02367181692769	1.12377940749094	0.2	0	0	0	305.035074451007	305.135060773231	0.0999863222241402	0.200023356825113
47796.25	100	249	1	121	1	1	90	1	1	0	1	22.5	67.5	2.44992032744016	1.87011415895607	0.2	0	0	0	305.335086812265	305.435065332334	0.0999785200692713	0.200026039034128
47871.25	100	250	1	122	1	1	90	1	1	0	2	67.5	22.5	-2.39882206544951	-3.00348757501837	0.2	0	0	0	305.635091127362	305.735074036755	0.0999829093925655	0.200025795027614
47946.25	100	251	1	123	1	1	90	1	1	0	2	157.5	22.5	-3.07073467720042	-1.95774855738851	0.2	0	0	0	305.935107389465	306.03508591	0.0999785205349326	0.200033352710307
48021.25	100	252	1	124	1	1	90	1	1	3	2	67.5	112.5	0.564035503164944	0.065539227366354	0.2	0	0	0	306.235106097534	306.335088762455	0.0999826649203897	0.200020187534392
48096.25	100	253	1	125	1	1	90	1	1	3	2	67.5	22.5	-0.998235948150881	1.75737061423871	0.2	0	0	0	306.535164051224	306.635123798158	0.0999597469344735	0.200075288768858
48171.25	100	254	1	126	1	1	90	1	1	3	1	112.5	157.5	-2.42601919536164	0.0192274474436669	0.2	0	0	0	306.835152518936	306.935136646964	0.0999841280281544	0.200028720777482
48246.25	100	255	1	127	1	1	90	1	1	3	1	22.5	157.5	-1.46641032855495	1.99035977252659	0.2	0	0	0	307.135163904633	307.235130478628	0.0999665739946067	0.200027257669717
51596.5	100	256	2	0	1	2	0	1	2	3	1	22.5	67.5	0.587821099788124	-2.27795184674641	0.2	0	0	0	320.535496363416	320.63548268564	0.0999863222241402	-1
51671.5	100	257	2	1	1	2	0	1	2	3	2	67.5	22.5	0.0534014494833772	-0.97676848679719	0.2	0	0	0	320.835550903808	320.935498216655	0.0999473128467798	0.200068218167871
51746.5	100	258	2	2	1	2	0	1	2	3	1	112.5	157.5	2.4848223761379	0.599842111415261	0.2	0	0	0	321.135521817487	321.235507408157	0.0999855906702578	0.200023600831628
51821.5	100	259	2	3	1	2	0	1	2	3	2	157.5	22.5	-1.56713863351842	3.00926031341032	0.2	0	0	0	321.435522963293	321.535530496854	0.100007533561438	0.200015555135906
51896.5	100	260	2	4	1	2	0	1	2	0	2	67.5	112.5	2.24868729350094	-2.80051680401198	0.2	0	0	0	321.735528009944	321.835561387707	0.100033377762884	0.199997513089329
51971.5	100	261	2	5	1	2	0	1	2	0	2	157.5	112.5	2.87996116076877	1.15098194109869	0.2	0	0	0	322.035534519702	322.135518403724	0.0999838840216398	0.199973131995648
52046.5	100	262	2	6	1	2	0	1	2	0	2	157.5	22.5	-1.32206413989072	-2.79586408491255	0.2	0	0	0	322.335544686764	322.435524669942	0.099979983177036	0.200026283040643
52121.5	100	263	2	7	1	2	0	1	2	0	1	22.5	157.5	-1.89829185731379	-1.28160698597507	0.2	0	0	0	322.635555584915	322.735547027085	0.0999914421699941	0.200030914973468
52196.5	100	264	2	8	1	2	0	1	2	0	1	22.5	67.5	-1.45522034986977	1.32703918403157	0.2	0	0	0	322.935572578572	323.035573773086	0.100001194514334	0.20002555148676
52271.5	100	265	2	9	1	2	0	1	2	0	2	67.5	112.5	-0.73865983766575	-2.95580423113836	0.2	0	0	0	323.23556616623	323.33557930775	0.100013141520321	0.199992393143475
52346.5	100	266	2	10	1	2	0	1	2	0	1	112.5	67.5	-2.72952568811432	-1.76628287277421	0.2	0	0	0	323.535589742474	323.635556316469	0.0999665739946067	0.200010434724391
52421.5	100	267	2	11	1	2	0	1	2	0	2	67.5	112.5	0.886871755381392	1.219990593133	0.2	0	0	0	323.835592595395	323.935574772768	0.0999821773730218	0.200036278925836
52496.5	100	268	2	12	1	2	0	1	2	0	1	22.5	67.5	0.0626599638027208	-0.179889859354263	0.2	0	0	0	324.135600567795	324.235600787215	0.100000219419599	0.200025795027614
52571.5	100	269	2	13	1	2	0	1	2	0	1	112.5	157.5	2.87057636875418	2.4142981809183	0.2	0	0	0	324.435633652844	324.535599251278	0.0999655984342098	0.2000328656286
52646.5	100	270	2	14	1	2	0	1	2	0	1	22.5	67.5	-1.96874755871714	-1.02095552734916	0.2	0	0	0	324.735620657448	324.835604054388	0.0999833969399333	0.200021406169981
52721.5	100	271	2	15	1	2	0	1	2	0	1	112.5	67.5	1.50243903814121	1.88485033417948	0.2	0	0	0	325.035633262713	325.135602274444	0.0999690117314458	0.20002920832485
52796.5	100	272	2	16	1	2	0	1	2	0	2	157.5	112.5	0.759023321955831	2.66437538572436	0.2	0	0	0	325.335654157214	325.435634871945	0.0999807147309184	0.200051882769912
52871.5	100	273	2	17	1	2	0	1	2	0	1	22.5	157.5	-1.23962804930218	0.605159815055357	0.2	0	0	0	325.635661886074	325.735630897805	0.0999690117314458	0.200027014128864
52946.5	100	274	2	18	1	2	0	1	2	0	2	67.5	22.5	-0.818424625623998	1.48993011562377	0.2	0	0	0	325.935668395367	326.035649841651	0.0999814462848008	0.200037497561425
53021.5	100	275	2	19	1	2	0	1	2	0	1	112.5	67.5	-2.97036882075519	-0.215240425508983	0.2	0	0	0	326.235660520382	326.335658789612	0.0999982692301273	0.200010678730905
53096.5	100	276	2	20	1	2	0	1	2	0	2	157.5	22.5	1.533010439325	-1.07250763854152	0.2	0	0	0	326.535686047282	326.635636773426	0.0999507261440158	0.200027257669717
53171.5	100	277	2	21	1	2	0	1	2	0	1	112.5	157.5	1.25229998515027	1.25649088383563	0.2	0	0	0	326.835669395048	326.935647428036	0.0999780329875648	0.200032621622086
53246.5	100	278	2	22	1	2	0	1	2	0	1	22.5	157.5	0.768787561727367	2.87730056805475	0.2	0	0	0	327.135677367914	327.235657838639	0.0999804707244039	0.200029939878732
53321.5	100	279	2	23	1	2	0	1	2	0	1	112.5	157.5	-1.12553520873091	-1.1056686026146	0.2	0	0	0	327.435680951923	327.535666542593	0.0999855906702578	0.20002311328426
53396.5	100	280	2	24	1	2	0	1	2	0	1	22.5	67.5	0.890082070125373	0.580549932025072	0.2	0	0	0	327.735694288276	327.83566866396	0.0999743756838143	0.200027745682746
53471.5	100	281	2	25	1	2	0	1	2	3	1	112.5	67.5	-0.505782556960393	-2.92853360955185	0.2	0	0	0	328.035701041576	328.1356873638	0.0999863222241402	0.200032377615571
53546.5	100	282	2	26	1	2	0	1	2	3	1	22.5	67.5	1.37838784472721	-0.141225088944509	0.2	0	0	0	328.335706332233	328.435685584322	0.099979252088815	0.200018968433142
53621.5	100	283	2	27	1	2	0	1	2	3	1	22.5	157.5	-0.524979791080833	1.96116752005862	0.2	0	0	0	328.635712110437	328.735692581628	0.0999804711900651	0.200026526115835
53696.5	100	284	2	28	1	2	0	1	2	2	-1	135	0	-1.89398478247883	1.70070586859062	0.2	0	0	0	328.935720814858	329.035705186427	0.0999843715690076	0.200028233230114
53771.5	100	285	2	29	1	2	0	1	2	3	2	67.5	22.5	-0.820023157024937	-1.84332795595982	0.2	0	0	0	329.235718547367	329.335716084577	0.0999975372105837	0.20001336093992
53846.5	100	286	2	30	1	2	0	1	2	3	2	67.5	112.5	-2.78664373045174	-0.776866723386742	0.2	0	0	0	329.53574383026	329.63572040014	0.0999765698798001	0.200027745682746
53921.5	100	287	2	31	1	2	0	1	2	3	2	157.5	112.5	-1.37869596007854	0.385338745801073	0.2	0	0	0	329.83575472841	329.935733248945	0.0999785205349326	0.200034328270704
53996.5	100	288	2	32	1	2	0	1	2	3	2	157.5	22.5	0.305394818208113	-0.727272808687303	0.2	0	0	0	330.135752704926	330.235737320501	0.0999846155755222	0.20001945598051
54071.5	100	289	2	33	1	2	0	1	2	0	2	157.5	22.5	-0.929979226681788	-3.00452274215497	0.2	0	0	0	330.435791641474	330.535776744597	0.09998510312289	0.200054320972413
54146.5	100	290	2	34	1	2	0	1	2	0	1	112.5	67.5	0.681924060794552	1.03918363894877	0.2	0	0	0	330.735801076982	330.835781060159	0.099979983177036	0.20002433238551
54221.5	100	291	2	35	1	2	0	1	2	0	2	157.5	22.5	0.796907545991647	2.14193448354193	0.2	0	0	0	331.035810268484	331.135787081905	0.0999768134206533	0.20002920832485
54296.5	100	292	2	36	1	2	0	1	2	0	2	67.5	22.5	-1.67712261529375	3.10799009921866	0.2	0	0	0	331.335798980203	331.435781401582	0.0999824213795364	0.200011898297817
54371.5	100	293	2	37	1	2	0	1	2	0	1	22.5	67.5	0.770687666872564	3.1282020207838	0.2	0	0	0	331.635808415245	331.735808634665	0.100000219419599	0.200027013663203
54446.5	100	294	2	38	1	2	0	1	2	0	2	67.5	112.5	-2.61935390047098	-1.95630542625444	0.2	0	0	0	331.93583296705	332.03581538843	0.0999824213795364	0.20002433238551
54521.5	100	295	2	39	1	2	0	1	2	0	2	67.5	22.5	-0.00835384426896635	-2.5258480084706	0.2	0	0	0	332.235840208363	332.335823848378	0.0999836400151253	0.200024819932878
54596.5	100	296	2	40	1	2	0	1	2	0	1	112.5	157.5	-0.267255696177864	-2.86830454226831	0.2	0	0	0	332.535849399865	332.635832552798	0.0999831529334188	0.20002555148676
54671.5	100	297	2	41	1	2	0	1	2	0	1	22.5	67.5	-0.531169664622583	0.981478989343017	0.2	0	0	0	332.835852496326	332.935840037651	0.0999875413253903	0.200019943527877
54746.5	100	298	2	42	1	2	0	1	2	0	2	157.5	22.5	3.09667130103842	-0.0177571269808996	0.2	0	0	0	333.135859981179	333.235843134113	0.0999831529334188	0.200019943527877
54821.5	100	299	2	43	1	2	0	1	2	0	2	157.5	112.5	1.18440181408207	-2.07385550293343	0.2	0	0	0	333.435870391782	333.535852325615	0.0999819338321686	0.200027257669717
54896.5	100	300	2	44	1	2	0	1	2	0	1	22.5	67.5	2.04621341860769	-2.55082462473627	0.2	0	0	0	333.735901282635	333.835832260083	0.0999309774488211	0.200048957020044
54971.5	100	301	2	45	1	2	0	1	2	0	1	22.5	157.5	2.12449999187925	-2.46725044298597	0.2	0	0	0	334.035864150152	334.135841695592	0.099977545440197	0.200031890068203
55046.5	100	302	2	46	1	2	0	1	2	0	1	22.5	67.5	1.54880653159567	-0.110033789821725	0.2	0	0	0	334.335870172363	334.435851374641	0.0999812022782862	0.200028476770967
55121.5	100	303	2	47	1	2	0	1	2	0	2	157.5	22.5	-1.67367912430733	2.26475388988546	0.2	0	0	0	334.635889604222	334.735871537589	0.0999819333665073	0.200038229580969
55196.5	100	304	2	48	1	2	0	1	2	0	1	22.5	157.5	-2.17803680337498	-0.229012083332404	0.2	0	0	0	334.935912448913	335.035896576941	0.0999841280281544	0.200040911324322
55271.5	100	305	2	49	1	2	0	1	2	0	2	67.5	22.5	-1.32650205003146	1.17767067704136	0.2	0	0	0	335.235902135726	335.335888214409	0.0999860786832869	0.200005558785051
55346.5	100	306	2	50	1	2	0	1	2	0	2	157.5	22.5	1.59905771067031	-2.19522077669389	0.2	0	0	0	335.535905232187	335.635883752722	0.0999785205349326	0.200017017778009
55421.5	100	307	2	51	1	2	0	1	2	0	2	67.5	22.5	-1.13844781770252	2.37224023321112	0.2	0	0	0	335.835938073229	335.93591976352	0.0999816902913153	0.200054320506752
55496.5	100	308	2	52	1	2	0	1	2	0	2	67.5	112.5	1.66073417700875	-1.61353517687161	0.2	0	0	0	336.135926541407	336.235928223468	0.100001682061702	0.200006777886301
55571.5	100	309	2	53	1	2	0	1	2	0	2	157.5	22.5	2.9925783029734	0.855122418149199	0.2	0	0	0	336.435954506043	336.535937658977	0.0999831529334188	0.200026282574981
55646.5	100	310	2	54	1	2	0	1	2	0	1	112.5	67.5	3.08781614701687	1.66165889688514	0.2	0	0	0	336.735938097816	336.835915886797	0.0999777889810503	0.200000438839197
55721.5	100	311	2	55	1	2	0	1	2	0	2	67.5	112.5	1.07504646979569	0.943213784953372	0.2	0	0	0	337.035945582669	337.13592020236	0.0999746196903288	0.200029695872217
55796.5	100	312	2	56	1	2	0	1	2	0	2	67.5	22.5	2.57470391393335	0.686109770495531	0.2	0	0	0	337.335949166678	337.435930856504	0.099981689825654	0.200028964318335
55871.5	100	313	2	57	1	2	0	1	2	0	2	67.5	22.5	1.90722495524457	2.42765376542993	0.2	0	0	0	337.635959089734	337.735941998661	0.0999829089269042	0.200028233230114
55946.5	100	314	2	58	1	2	0	1	2	0	2	157.5	112.5	-2.26577022909564	2.23429111452031	0.2	0	0	0	337.935962430201	338.035948752426	0.0999863222241402	0.200020431540906
56021.5	100	315	2	59	1	2	0	1	2	0	1	22.5	157.5	-1.57657026341006	0.0268207947004035	0.2	0	0	0	338.235979423393	338.335959163029	0.0999797396361828	0.200030670966953
56096.5	100	316	2	60	1	2	0	1	2	0	1	22.5	157.5	0.88969252610326	2.88448037860445	0.2	0	0	0	338.535984226502	338.635974693578	0.0999904670752585	0.200025063473731
56171.5	100	317	2	61	1	2	0	1	2	0	2	67.5	22.5	1.09736557376242	0.23376987169147	0.2	0	0	0	338.836000245064	338.935983153991	0.0999829089269042	0.20002555148676
56246.5	100	318	2	62	1	2	0	1	2	0	1	112.5	157.5	-2.01638415870879	2.27274058524047	0.2	0	0	0	339.136014312506	339.235995514784	0.0999812022782862	0.200031158514321
56321.5	100	319	2	63	1	2	0	1	2	0	1	112.5	67.5	-0.83648484985077	-2.57308302255471	0.2	0	0	0	339.436015702318	339.536001781002	0.0999860786832869	0.200020187534392
56396.5	100	320	2	64	1	2	0	1	2	0	2	157.5	112.5	2.45465726095249	-3.04019261083781	0.2	0	0	0	339.736043667421	339.836025357246	0.099981689825654	0.200041886419058
56471.5	100	321	2	65	1	2	0	1	2	0	1	112.5	67.5	3.1251225285243	1.02932116514148	0.2	0	0	0	340.036051883828	340.136034061201	0.0999821773730218	0.200026526581496
56546.5	100	322	2	66	1	2	0	1	2	0	1	112.5	67.5	-2.23826000154356	-0.984281296597333	0.2	0	0	0	340.33605522383	340.436040814966	0.0999855911359191	0.200021162629128
56621.5	100	323	2	67	1	2	0	1	2	0	2	157.5	112.5	0.169507662757067	-1.74125090777289	0.2	0	0	0	340.636081725825	340.736054151319	0.099972425494343	0.200040910858661
56696.5	100	324	2	68	1	2	0	1	2	0	1	22.5	67.5	-2.83139787244599	-1.56565818610882	0.2	0	0	0	340.936055077706	341.036037255079	0.0999821773730218	0.200000926386565
56771.5	100	325	2	69	1	2	0	1	2	0	2	157.5	112.5	-1.28525909067086	-3.00352426815337	0.2	0	0	0	341.23605500441	341.336035719141	0.0999807147309184	0.200017749331892
56846.5	100	326	2	70	1	2	0	1	2	0	2	67.5	112.5	-2.52160942468888	2.88850400535708	0.2	0	0	0	341.536063952371	341.6360422289	0.0999782765284181	0.200028233230114
56921.5	100	327	2	71	1	2	0	1	2	0	2	67.5	112.5	-1.51632415157505	-1.15491271862582	0.2	0	0	0	341.836071193684	341.936049470212	0.0999782765284181	0.200028964783996
56996.5	100	328	2	72	1	2	0	1	2	0	1	112.5	157.5	-2.50519777599813	-1.78045968986776	0.2	0	0	0	342.136076727882	342.236065732315	0.0999890044331551	0.200027257669717
57071.5	100	329	2	73	1	2	0	1	2	0	1	112.5	67.5	1.28105936589913	-2.26968418807751	0.2	0	0	0	342.436088357586	342.536098816898	0.100010459311306	0.200022625271231
57146.5	100	330	2	74	1	2	0	1	2	0	1	112.5	157.5	1.76592893319821	2.24400250590143	0.2	0	0	0	342.736105107237	342.836075338069	0.099970230832696	0.200006290338933
57221.5	100	331	2	75	1	2	0	1	2	0	2	157.5	22.5	-0.214129671552941	0.568459567786975	0.2	0	0	0	343.036106741056	343.136114762165	0.100008021108806	0.200031402986497
57296.5	100	332	2	76	1	2	0	1	2	0	1	22.5	67.5	3.01832323086344	-2.47223073890173	0.2	0	0	0	343.336125440896	343.436120052822	0.0999946119263768	0.200010678730905
57371.5	100	333	2	77	1	2	0	1	2	3	2	157.5	22.5	0.723664627614422	-0.240149687903177	0.2	0	0	0	343.636149748694	343.736105107237	0.0999553585425019	0.200029695872217
57446.5	100	334	2	78	1	2	0	1	2	3	1	22.5	67.5	-1.96216778000614	-2.69151129715759	0.2	0	0	0	343.936123588122	344.036109178793	0.0999855906702578	0.200018480885774
57521.5	100	335	2	79	1	2	0	1	2	3	1	22.5	157.5	2.16665264727842	1.03314438408756	0.2	0	0	0	344.236148871016	344.336144702043	0.099995831027627	0.200039692223072
57596.5	100	336	2	80	1	2	0	1	2	2	-1	135	0	0.467509108313814	2.29985035741075	0.2	0	0	0	344.536170741078	344.6361370706	0.0999663295224309	0.200026039034128
57671.5	100	337	2	81	1	2	0	1	2	3	2	67.5	112.5	0.425696239902352	0.581597475493574	0.2	0	0	0	344.836175544187	344.936170399655	0.0999948554672301	0.200038473587483
57746.5	100	338	2	82	1	2	0	1	2	3	1	112.5	67.5	1.46841573424407	-3.05860385587197	0.2	0	0	0	345.136188636534	345.236173496116	0.0999848595820367	0.200018236879259
57821.5	100	339	2	83	1	2	0	1	2	3	2	67.5	22.5	2.37913211262361	-2.92168446966153	0.2	0	0	0	345.436184174847	345.536183175165	0.0999990003183484	0.200010678730905
57896.5	100	340	2	84	1	2	0	1	2	3	2	157.5	112.5	2.97559827760036	-0.729012578397303	0.2	0	0	0	345.73618556466	345.836161402985	0.0999758383259177	0.20000238949433
57971.5	100	341	2	85	1	2	0	1	2	0	1	112.5	67.5	1.94331854190848	0.540826982262292	0.2	0	0	0	346.03618744202	346.136164499447	0.0999770574271679	0.200026039034128
58046.5	100	342	2	86	1	2	0	1	2	0	2	157.5	22.5	0.440459789170339	-2.28330805436759	0.2	0	0	0	346.336220039055	346.436203191988	0.0999831529334188	0.200055539608002
58121.5	100	343	2	87	1	2	0	1	2	0	1	112.5	157.5	-3.10490741835141	0.227179106407152	0.2	0	0	0	346.636204118375	346.73619458545	0.0999904670752585	0.200000926386565
58196.5	100	344	2	88	1	2	0	1	2	0	2	67.5	22.5	-0.595723815123473	0.380996535479876	0.2	0	0	0	346.936221355572	347.036191098858	0.0999697432853281	0.200026770122349
58271.5	100	345	2	89	1	2	0	1	2	0	2	67.5	22.5	-0.667325617417718	3.05878628046658	0.2	0	0	0	347.236250783782	347.33622784121	0.0999770574271679	0.200059684924781
58346.5	100	346	2	90	1	2	0	1	2	0	2	67.5	112.5	0.582014541967307	-2.51678804130333	0.2	0	0	0	347.536225598305	347.63620899478	0.099983396474272	0.199997757095844
58421.5	100	347	2	91	1	2	0	1	2	0	1	112.5	157.5	0.609673199828475	2.92030906979228	0.2	0	0	0	347.836233083159	347.936218430288	0.0999853471294045	0.200024088378996
58496.5	100	348	2	92	1	2	0	1	2	0	2	157.5	22.5	2.65299555554911	-0.934761612999986	0.2	0	0	0	348.136242518667	348.236222989392	0.0999804707244039	0.200024088378996
58571.5	100	349	2	93	1	2	0	1	2	0	1	22.5	157.5	1.31797569839747	1.56056469577793	0.2	0	0	0	348.436251710169	348.536230230238	0.0999785200692713	0.200028720777482
58646.5	100	350	2	94	1	2	0	1	2	0	2	67.5	22.5	2.50937487551331	0.387002206220428	0.2	0	0	0	348.73626260832	348.836238934658	0.0999763263389468	0.200032378081232
58721.5	100	351	2	95	1	2	0	1	2	0	2	157.5	112.5	-1.50330510628465	-2.73375731874332	0.2	0	0	0	349.036262779031	349.136247882154	0.09998510312289	0.200023844372481
58796.5	100	352	2	96	1	2	0	1	2	0	2	67.5	22.5	-1.2395623684089	2.21419616904884	0.2	0	0	0	349.336271726992	349.436259999406	0.0999882724136114	0.200023844838142
58871.5	100	353	2	97	1	2	0	1	2	0	1	112.5	157.5	-2.18547845670007	1.47068998983753	0.2	0	0	0	349.636283844244	349.736298692413	0.100014848168939	0.200023844838142
58946.5	100	354	2	98	1	2	0	1	2	0	1	22.5	157.5	-0.648773516079118	1.67625474642185	0.2	0	0	0	349.936322292779	350.036309590563	0.0999872977845371	0.200023600365967
59021.5	100	355	2	99	1	2	0	1	2	0	1	112.5	157.5	-1.66134880232825	0.863272215077958	0.2	0	0	0	350.236318319105	350.336313174572	0.0999948554672301	0.200008728541434
59096.5	100	356	2	100	1	2	0	1	2	0	2	157.5	22.5	-0.995239642788173	-2.92137122473559	0.2	0	0	0	350.536339701153	350.636320171878	0.0999804707244039	0.200026526581496
59171.5	100	357	2	101	1	2	0	1	2	0	1	112.5	67.5	0.862058735818552	-2.3144820076928	0.2	0	0	0	350.836347673554	350.936329607386	0.0999819338321686	0.200027501676232
59246.5	100	358	2	102	1	2	0	1	2	0	1	112.5	67.5	-0.959219853983289	2.23180140353371	0.2	0	0	0	351.136341505218	351.236337092239	0.0999955870211124	0.200011897832155
59321.5	100	359	2	103	1	2	0	1	2	0	2	67.5	112.5	2.16042251062104	0.0793997169278833	0.2	0	0	0	351.436361180618	351.536329460796	0.0999682801775634	0.200024088378996
59396.5	100	360	2	104	1	2	0	1	2	0	2	157.5	112.5	0.912814815552928	2.13692159076	0.2	0	0	0	351.736378174275	351.836353768595	0.0999755943194032	0.200048713479191
59471.5	100	361	2	105	1	2	0	1	2	0	1	22.5	157.5	2.61553796973149	2.62467581622746	0.2	0	0	0	352.03638395248	352.136363204103	0.0999792516231537	0.200030183885247
59546.5	100	362	2	106	1	2	0	1	2	0	1	22.5	157.5	3.04722450750652	3.12506002426684	0.2	0	0	0	352.336393631529	352.436362155713	0.099968524184078	0.2000304274261
59621.5	100	363	2	107	1	2	0	1	2	3	2	157.5	22.5	-1.43929825257493	2.84614636873611	0.2	0	0	0	352.63636405766	352.736352330539	0.0999882728792727	0.200001901946962
59696.5	100	364	2	108	1	2	0	1	2	3	2	67.5	112.5	-0.830287394334653	1.28771958498103	0.2	0	0	0	352.936373005155	353.036356158089	0.0999831529334188	0.200020674616098
59771.5	100	365	2	109	1	2	0	1	2	3	1	22.5	157.5	-2.49978034676682	1.864309045655	0.2	0	0	0	353.236385366414	353.33636413049	0.0999787640757859	0.20002920832485
59846.75	100	366	2	110	1	2	0	1	2	1	-1	0	45	-1.54299669509004	-3.03175111322587	0.2	0	0	0	353.53639041353	353.636368446052	0.0999780325219035	0.200026283040643
59921.75	100	367	2	111	1	2	0	1	2	3	2	157.5	112.5	2.72015650067698	2.21150906710482	0.2	0	0	0	353.836423010565	353.936382269952	0.0999592593871057	0.200054564513266
59996.75	100	368	2	112	1	2	0	1	2	3	1	112.5	157.5	0.177031084783673	1.3314011320005	0.2	1	0.492161886766553	1	354.136404651683	354.236430715304	0.100026063621044	0.200022381730378
60071.75	100	369	2	113	1	2	0	1	2	3	2	67.5	22.5	1.12671165650547	-1.04971112476823	0.2	0	0	0	354.436421157792	354.536397483665	0.0999763258732855	0.199990442488343
60146.75	100	370	2	114	1	2	0	1	2	3	1	112.5	67.5	2.21360980768907	0.465204448859608	0.2	0	0	0	354.736429130193	354.836404480971	0.0999753507785499	0.20003164652735
60221.75	100	371	2	115	1	2	0	1	2	0	2	157.5	112.5	3.07022047460789	2.22808972146994	0.2	0	0	0	355.036430520006	355.136407821439	0.0999773014336824	0.200026039034128
60296.75	100	372	2	116	1	2	0	1	2	0	2	67.5	112.5	0.871980348771715	-0.163454704918168	0.2	0	0	0	355.336433616467	355.436418963596	0.0999853471294045	0.200025795027614
60371.75	100	373	2	117	1	2	0	1	2	0	2	157.5	112.5	-1.32167550864783	2.57897492872187	0.2	0	0	0	355.636445246171	355.736427911092	0.0999826649203897	0.200026282574981
60446.75	100	374	2	118	1	2	0	1	2	0	1	112.5	157.5	0.343638732992426	0.270758756065027	0.2	0	0	0	355.936451268382	356.036436615512	0.0999853471294045	0.200023357290775
60521.75	100	375	2	119	1	2	0	1	2	0	2	67.5	22.5	1.79971791723594	-1.50523002080105	0.2	0	0	0	356.236493618228	356.336456046905	0.0999624286778271	0.200057002715766
60596.75	100	376	2	120	1	2	0	1	2	0	2	67.5	112.5	0.0334684924717963	0.991846988248086	0.2	0	0	0	356.53647940373	356.636476941407	0.099997537676245	0.200023356825113
60671.75	100	377	2	121	1	2	0	1	2	0	1	112.5	67.5	1.96088595147222	-2.01071169189304	0.2	0	0	0	356.836504443083	356.936488815118	0.0999843720346689	0.200027501676232
60746.75	100	378	2	122	1	2	0	1	2	0	1	22.5	157.5	0.638974113899872	1.73653654998056	0.2	0	0	0	357.136516072787	357.236476551276	0.0999604784883559	0.200027257669717
60821.75	100	379	2	123	1	2	0	1	2	0	1	22.5	67.5	0.21507753766393	2.28674049144071	0.2	0	0	0	357.436496982351	357.536481110379	0.0999841280281544	0.200020431075245
60896.75	100	380	2	124	1	2	0	1	2	0	1	22.5	157.5	-1.26591962111225	0.455408599022553	0.2	0	0	0	357.736516170204	357.836501029786	0.0999848595820367	0.200035059824586
60971.75	100	381	2	125	1	2	0	1	2	0	2	157.5	112.5	-1.29250218775411	1.46300421988741	0.2	0	0	0	358.036539259367	358.136522411834	0.0999831524677575	0.200038229580969
61046.75	100	382	2	126	1	2	0	1	2	0	2	157.5	112.5	1.85652190365721	2.98642341762909	0.2	0	0	0	358.336545525119	358.436509904452	0.0999643793329597	0.20002311328426
61121.75	100	383	2	127	1	2	0	1	2	0	1	22.5	67.5	1.55970802745865	1.94830279271736	0.2	0	0	0	358.636527166236	358.736509587616	0.0999824213795364	0.200017261784524
61196.75	100	384	2	128	1	2	0	1	2	0	2	157.5	22.5	-2.20295291903932	-1.51414881942559	0.2	0	0	0	358.936559032183	359.03653901536	0.099979983177036	0.200049444567412
61271.75	100	385	2	129	1	2	0	1	2	0	1	22.5	67.5	-2.46583043969891	2.02347424604306	0.2	0	0	0	359.236552619841	359.336526751518	0.0999741316772997	0.200013604480773
61346.75	100	386	2	130	1	2	0	1	2	0	1	112.5	157.5	1.04376655112139	2.002921219577	0.2	0	0	0	359.536548645701	359.636539600324	0.0999909546226263	0.20002189418301
61421.75	100	387	2	131	1	2	0	1	2	0	2	67.5	112.5	0.99583386515357	-0.424206828153351	0.2	0	0	0	359.836561250966	359.936544159893	0.0999829089269042	0.200021650642157
61496.75	100	388	2	132	1	2	0	1	2	3	1	112.5	67.5	2.99653319331987	0.169322947382402	0.2	0	0	0	360.136564590968	360.236548963003	0.0999843720346689	0.200020431075245
61571.75	100	389	2	133	1	2	0	1	2	3	1	22.5	157.5	-2.36627759962717	-0.503798746807842	0.2	0	0	0	360.436590605415	360.536560104694	0.0999694992788136	0.200041642412543
61646.75	100	390	2	134	1	2	0	1	2	3	2	67.5	112.5	1.83411193477373	-0.932257667018922	0.2	0	0	0	360.736612963025	360.836591239553	0.0999782765284181	0.200052858330309
61721.75	100	391	2	135	1	2	0	1	2	3	2	157.5	112.5	-0.687197089916848	2.44236269949192	0.2	0	0	0	361.036620691419	361.136602137703	0.0999814462848008	0.200029451865703
65263.5	100	392	3	0	1	1	0	1	2	3	1	112.5	67.5	-0.183388566059538	-0.933424103442749	0.2	0	0	0	375.203668554779	375.303648537956	0.099979983177036	-1
65338.5	100	393	3	1	1	1	0	1	2	3	1	22.5	67.5	-1.93662756087046	0.371744618179707	0.2	0	0	0	375.503693837672	375.603660411201	0.0999665735289454	0.200045299716294
65413.5	100	394	3	2	1	1	0	1	2	3	1	112.5	157.5	1.11506365224855	0.417018362269167	0.2	0	0	0	375.803681817837	375.903672528453	0.0999907106161118	0.200021406635642
65488.5	100	395	3	3	1	1	0	1	2	3	2	157.5	22.5	-1.80841427293326	2.48141513793587	0.2	0	0	0	376.103681988548	376.203657339327	0.0999753507785499	0.200009460095316
65563.5	100	396	3	4	1	1	0	1	2	0	1	22.5	157.5	1.94293825508018	-1.41663544607687	0.2	0	0	0	376.403683378361	376.503689692821	0.100006314460188	0.200026039034128
65638.5	100	397	3	5	1	1	0	1	2	0	2	157.5	112.5	-1.22552893835311	0.1722633038583	0.2	0	0	0	376.703697202262	376.803675234783	0.0999780325219035	0.200007509440184
65713.5	100	398	3	6	1	1	0	1	2	0	1	22.5	157.5	3.06764861078828	-2.91193127255385	0.2	0	0	0	377.003702248912	377.103687352501	0.0999851035885513	0.200027014128864
65788.5	100	399	3	7	1	1	0	1	2	0	2	67.5	112.5	0.549210212350381	-0.272702050729292	0.2	0	0	0	377.303715829272	377.4036941058	0.0999782765284181	0.200028476770967
65863.5	100	400	3	8	1	1	0	1	2	0	2	67.5	22.5	-2.96453456200703	-1.28431424861779	0.2	0	0	0	377.603721119929	377.703712806106	0.0999916861765087	0.200027014128864
65938.5	100	401	3	9	1	1	0	1	2	0	2	157.5	112.5	2.06591213621756	-2.85112566122772	0.2	0	0	0	377.903731042985	378.003701761365	0.0999707183800638	0.200018236879259
66013.5	100	402	3	10	1	1	0	1	2	0	2	67.5	22.5	0.3374230177634	-0.417328047421588	0.2	0	0	0	378.203721461352	378.303709490225	0.0999880288727582	0.200019699987024
66088.5	100	403	3	11	1	1	0	1	2	0	1	112.5	157.5	2.33308705422762	-2.95694828547683	0.2	0	0	0	378.503733334597	378.603732091375	0.0999987567774951	0.200023844372481
66163.5	100	404	3	12	1	1	0	1	2	0	2	67.5	112.5	-1.42280053671971	1.22702471525938	0.2	0	0	0	378.803754960652	378.903732505627	0.0999775449745357	0.200022869277745
66238.5	100	405	3	13	1	1	0	1	2	0	1	22.5	157.5	2.4599147293535	-0.051821102888888	0.2	0	0	0	379.103760738857	379.203739259392	0.0999785205349326	0.200028233230114
66313.5	100	406	3	14	1	1	0	1	2	0	1	112.5	67.5	-1.62614814004603	-0.0466306841034489	0.2	0	0	0	379.403761884663	379.503736747894	0.0999748632311821	0.200022625271231
66388.5	100	407	3	15	1	1	0	1	2	0	1	22.5	67.5	-1.23492386230325	-2.05500890511731	0.2	0	0	0	379.703762786929	379.803744720761	0.0999819338321686	0.200026039034128
66463.5	100	408	3	16	1	1	0	1	2	0	1	22.5	67.5	0.609325655665411	-0.428727482100005	0.2	0	0	0	380.003778317478	380.103761470411	0.0999831529334188	0.200033596716821
66538.5	100	409	3	17	1	1	0	1	2	0	2	67.5	22.5	-2.70447349335016	-2.46861006669454	0.2	0	0	0	380.303787996992	380.403791142162	0.100003145169467	0.200026526581496
66613.5	100	410	3	18	1	1	0	1	2	0	2	157.5	112.5	2.62621001518297	1.65939780088478	0.2	0	0	0	380.603794994298	380.703778634779	0.0999836404807866	0.200003852136433
66688.5	100	411	3	19	1	1	0	1	2	0	2	157.5	22.5	-2.90716798464248	1.9134827252786	0.2	0	0	0	380.903802966699	381.003772953991	0.0999699872918427	0.200024331919849
66763.5	100	412	3	20	1	1	0	1	2	0	1	112.5	67.5	-0.889280823746542	2.37431249141565	0.2	0	0	0	381.203799236566	381.303786290344	0.0999870537780225	0.200026282574981
66838.5	100	413	3	21	1	1	0	1	2	0	2	67.5	112.5	-2.16736965417085	0.169937394669834	0.2	0	0	0	381.503820374608	381.603791581001	0.0999712063930929	0.200034084264189
66913.5	100	414	3	22	1	1	0	1	2	0	1	22.5	67.5	2.13017985328144	-2.0739982918046	0.2	0	0	0	381.803820301779	381.90380711155	0.099986809771508	0.200028720777482
66988.5	100	415	3	23	1	1	0	1	2	0	1	112.5	67.5	-1.76384914244547	2.23153979452623	0.2	0	0	0	382.103858262766	382.203838245943	0.099979983177036	0.20005115121603
67063.5	100	416	3	24	1	1	0	1	2	0	1	22.5	67.5	-0.0780917094256273	-1.19945524267071	0.2	0	0	0	382.403848193586	382.503847925458	0.0999997318722308	0.200009947642684
67138.5	100	417	3	25	1	1	0	1	2	0	1	112.5	157.5	0.451266763688853	-0.411909938811729	0.2	0	0	0	382.703872257378	382.803837124724	0.0999648673459888	0.200024331919849
67213.5	100	418	3	26	1	1	0	1	2	0	1	112.5	157.5	-2.96446925036516	2.88715654341683	0.2	0	0	0	383.003849022556	383.103834369686	0.0999853471294045	0.200011897832155
67288.5	100	419	3	27	1	1	0	1	2	0	1	22.5	67.5	-2.41667369421082	-1.92137861045671	0.2	0	0	0	383.303865040652	383.403840878978	0.0999758383259177	0.200030670966953
67363.5	100	420	3	28	1	1	0	1	2	0	1	22.5	157.5	-0.719748338380847	-1.55722271478845	0.2	0	0	0	383.60386545537	383.703848607838	0.0999831524677575	0.200024576392025
67438.5	100	421	3	29	1	1	0	1	2	0	2	67.5	22.5	-2.10354851749429	0.611772258432139	0.2	0	0	0	383.903874890413	384.0038587749	0.0999838844873011	0.200026282574981
67513.5	100	422	3	30	1	1	0	1	2	0	2	67.5	22.5	-2.36140585899235	-1.57191246797275	0.2	0	0	0	384.203886276577	384.303899418097	0.100013141520321	0.200027501676232
67588.5	100	423	3	31	1	1	0	1	2	0	2	157.5	112.5	-2.74976700318564	-0.685820819174074	0.2	0	0	0	384.503920824267	384.603874232154	0.0999534078873694	0.200021406169981
67663.5	100	424	3	32	1	1	0	1	2	0	1	112.5	157.5	2.10532029963723	-1.61081851003751	0.2	0	0	0	384.803902221844	384.903918045107	0.100015823263675	0.200027989689261
67738.5	100	425	3	33	1	1	0	1	2	0	2	157.5	22.5	-0.150202903034806	0.453410259596903	0.2	1	0	0	385.103917752393	385.203890664969	0.0999729125760496	0.199999707285315
67813.5	100	426	3	34	1	1	0	1	2	0	2	67.5	22.5	-1.01222705934533	2.71392752331568	0.2	0	0	0	385.403912071604	385.503897906281	0.0999858346767724	0.200021406635642
67888.5	100	427	3	35	1	1	0	1	2	0	2	157.5	112.5	-2.25731899400528	1.45894034572693	0.2	0	0	0	385.703952714801	385.803941718768	0.0999890039674938	0.200054808519781
67963.5	100	428	3	36	1	1	0	1	2	3	2	157.5	22.5	-2.02623840299804	1.06860308987001	0.2	0	0	0	386.003947277553	386.103925798088	0.0999785205349326	0.200005558785051
68038.5	100	429	3	37	1	1	0	1	2	3	2	67.5	22.5	2.8578889863552	-1.34850454998043	0.2	0	0	0	386.303943791427	386.403922311496	0.0999785200692713	0.200017993338406
68113.5	100	430	3	38	1	1	0	1	2	3	1	112.5	157.5	-2.2884990745417	2.72284836556661	0.2	0	0	0	386.603980045766	386.703945156652	0.099965110886842	0.200057734269649
68188.5	100	431	3	39	1	1	0	1	2	2	-1	45	0	1.44409744048173	-2.92209522706874	0.2	0	0	0	386.903960223775	387.003967270255	0.100007046479732	0.200015067122877
68263.5	100	432	3	40	1	1	0	1	2	3	2	157.5	112.5	1.19136071404658	1.30921444543535	0.2	0	0	0	387.203991846181	387.30397597421	0.0999841280281544	0.200024575926363
68338.5	100	433	3	41	1	1	0	1	2	3	1	22.5	157.5	2.17023649701173	-0.870665465913271	0.2	0	0	0	387.503998843487	387.603985165711	0.0999863222241402	0.200022869277745
68413.5	100	434	3	42	1	1	0	1	2	3	1	22.5	67.5	0.99620605849938	-0.525478654835003	0.2	0	0	0	387.804007791448	387.903963881079	0.099956089630723	0.200022625736892
68488.5	100	435	3	43	1	1	0	1	2	3	1	112.5	67.5	-1.04556822234876	1.73327884033803	0.2	0	0	0	388.103992845863	388.203971365932	0.0999785200692713	0.200028964783996
68563.5	100	436	3	44	1	1	0	1	2	0	1	112.5	157.5	-0.477230376822761	-0.811566622178038	0.2	0	0	0	388.404000574723	388.503980069887	0.0999794951640069	0.200029208790511
68638.5	100	437	3	45	1	1	0	1	2	0	2	157.5	112.5	2.20911582351009	-1.74737354147794	0.2	0	0	0	388.704009034671	388.803983897902	0.0999748632311821	0.200028964783996
68713.5	100	438	3	46	1	1	0	1	2	0	1	22.5	67.5	0.78578961482689	0.198764459859387	0.2	0	0	0	389.004011156037	389.103993576951	0.0999824209138751	0.200027258135378
68788.5	100	439	3	47	1	1	0	1	2	0	2	157.5	22.5	-2.84950986063058	-2.05268952417476	0.2	0	0	0	389.304033513181	389.404004231561	0.0999707183800638	0.200039936229587
68863.5	100	440	3	48	1	1	0	1	2	0	1	112.5	67.5	-1.78897657581977	1.66230914507567	0.2	0	0	0	389.604028563946	389.704013179522	0.0999846155755222	0.20002433238551
68938.5	100	441	3	49	1	1	0	1	2	0	2	67.5	112.5	2.96791193665211	-1.54561952039826	0.2	0	0	0	389.904035804793	390.00404821476	0.100012409966439	0.200022625271231
69013.5	100	442	3	50	1	1	0	1	2	0	2	67.5	112.5	-2.81936033463185	-0.44641232726417	0.2	0	0	0	390.204074253794	390.304033269174	0.0999590153805912	0.200026039034128
69088.5	100	443	3	51	1	1	0	1	2	0	2	157.5	22.5	-3.09802819832193	-1.65076914908393	0.2	0	0	0	390.504059795756	390.604039778933	0.099979983177036	0.200026526581496
69163.5	100	444	3	52	1	1	0	1	2	0	2	67.5	112.5	1.71261918549721	1.34589079324251	0.2	0	0	0	390.804057772271	390.904048239347	0.0999904670752585	0.200017993338406
69238.5	100	445	3	53	1	1	0	1	2	0	1	22.5	157.5	-0.0661976222263592	0.806061013737708	0.2	0	0	0	391.104074277915	391.204054261558	0.0999799836426973	0.200026038568467
69313.5	100	446	3	54	1	1	0	1	2	0	2	157.5	112.5	-0.620959758806252	3.01119752605637	0.2	0	0	0	391.404074692633	391.504062233958	0.0999875413253903	0.200020431075245
69388.5	100	447	3	55	1	1	0	1	2	0	1	22.5	67.5	0.197590691175164	2.35708474409882	0.2	0	0	0	391.704085103236	391.804057040717	0.0999719374813139	0.200022869277745
69463.5	100	448	3	56	1	1	0	1	2	0	1	112.5	157.5	0.37039016220512	-0.17288439366079	0.2	0	0	0	392.004127940629	392.104083055165	0.0999551145359874	0.200070899911225
69538.5	100	449	3	57	1	1	0	1	2	0	2	157.5	22.5	-1.33825023505203	-2.73545429303299	0.2	0	0	0	392.30413396284	392.404098342173	0.0999643793329597	0.200050907675177
69613.5	100	450	3	58	1	1	0	1	2	0	1	22.5	157.5	1.87685145010699	1.27110690807082	0.2	0	0	0	392.604110240005	392.704093636479	0.099983396474272	0.200011897832155
69688.5	100	451	3	59	1	1	0	1	2	0	2	67.5	112.5	-0.491644837296013	1.4065107910824	0.2	0	0	0	392.904121626168	393.004099414684	0.099977788515389	0.200027989689261
69763.5	100	452	3	60	1	1	0	1	2	0	1	112.5	67.5	-1.88938049973131	1.23168824364391	0.2	0	0	0	393.204145445954	393.304119334091	0.0999738881364465	0.200046031270176
69838.5	100	453	3	61	1	1	0	1	2	0	2	67.5	22.5	2.20975132154834	1.51021356598103	0.2	0	0	0	393.504136108328	393.604120236356	0.0999841280281544	0.200016774237156
69913.5	100	454	3	62	1	1	0	1	2	0	1	22.5	67.5	2.9475273590588	-0.750610968835916	0.2	0	0	0	393.804145543836	393.90412601456	0.0999804707244039	0.200025307480246
69988.5	100	455	3	63	1	1	0	1	2	0	2	157.5	22.5	0.109587259212291	0.827913066112882	0.2	0	0	0	394.10415619798	394.204134230968	0.0999780329875648	0.200030183419585
70063.5	100	456	3	64	1	1	0	1	2	0	1	112.5	67.5	0.583736755965357	-1.57036679934233	0.2	0	0	0	394.404186844826	394.504147079773	0.0999602349475026	0.200052613858134
70138.5	100	457	3	65	1	1	0	1	2	0	1	22.5	157.5	1.09763648803871	-2.09271811105873	0.2	0	0	0	394.704172630794	394.804149444681	0.0999768138863146	0.200025551021099
70213.5	100	458	3	66	1	1	0	1	2	3	1	112.5	157.5	0.906910583887327	-2.32674130059418	0.2	0	0	0	395.004179140553	395.104174484033	0.0999953434802592	0.200029695872217
70288.5	100	459	3	67	1	1	0	1	2	3	1	22.5	157.5	-1.93442883726556	-0.930744422782038	0.2	0	0	0	395.304186381865	395.40416100109	0.0999746192246675	0.200011897832155
70363.5	100	460	3	68	1	1	0	1	2	3	2	157.5	112.5	-2.81911443155532	2.0821551061684	0.2	0	0	0	395.604195573367	395.704176532105	0.099980958737433	0.200034572277218
70438.5	100	461	3	69	1	1	0	1	2	2	-1	45	0	-1.31224530337215	3.05461716101721	0.2	0	0	0	395.904201595578	396.004181091208	0.0999794956296682	0.200025063473731
70513.5	100	462	3	70	1	1	0	1	2	3	1	112.5	67.5	0.895347817196089	0.334413335355526	0.2	0	0	0	396.204205179587	396.304195402656	0.0999902230687439	0.200024088378996
70588.5	100	463	3	71	1	1	0	1	2	3	2	67.5	112.5	-3.14082427729384	-3.09547995931604	0.2	0	0	0	396.504222904332	396.604201424867	0.0999785205349326	0.200027501676232
70663.5	100	464	3	72	1	1	0	1	2	3	2	157.5	22.5	1.08328998264224	-2.61894950329175	0.2	0	0	0	396.804223562591	396.904205740429	0.0999821778386831	0.200022137723863
70738.5	100	465	3	73	1	1	0	1	2	3	2	67.5	22.5	1.888899437426	-2.67741908212816	0.2	0	0	0	397.104246407747	397.204245895613	0.0999994878657162	0.200040667317808
70813.5	100	466	3	74	1	1	0	1	2	0	1	112.5	157.5	-2.39667455256328	1.43173011297	0.2	0	0	0	397.404258524999	397.504256062675	0.099997537676245	0.200012629386038
70888.5	100	467	3	75	1	1	0	1	2	0	1	22.5	157.5	2.1991933094968	0.885200200603638	0.2	0	0	0	397.704279907048	397.804231120739	0.0999512136913836	0.200023844372481
70963.5	100	468	3	76	1	1	0	1	2	0	2	157.5	22.5	2.08384445324512	3.1211217234699	0.2	0	0	0	398.004256184679	398.104268594179	0.100012409500778	0.200025063939393
71038.5	100	469	3	77	1	1	0	1	2	0	1	112.5	67.5	-0.596551569725778	-1.89182687031809	0.2	0	0	0	398.304302435368	398.404279005248	0.0999765698798001	0.200033841188997
71113.5	100	470	3	78	1	1	0	1	2	0	2	67.5	22.5	1.87681399216177	-2.575560730128	0.2	0	0	0	398.604302605614	398.704296242446	0.0999936368316412	0.200023600365967
71188.5	100	471	3	79	1	1	0	1	2	0	2	157.5	112.5	-0.0104834040877186	-2.15641561576727	0.2	0	0	0	398.90429473063	399.004293730948	0.0999990003183484	0.199998488184065
71263.5	100	472	3	80	1	1	0	1	2	0	2	157.5	112.5	0.999260885204673	0.741776272175251	0.2	0	0	0	399.204319526441	399.304304873105	0.0999853466637433	0.200025795493275
71338.5	100	473	3	81	1	1	0	1	2	0	1	112.5	157.5	-1.19350849818823	2.19783542263573	0.2	0	0	0	399.504302142654	399.604277005885	0.0999748632311821	0.199997269548476
71413.5	100	474	3	82	1	1	0	1	2	0	1	22.5	67.5	-2.67797286408241	2.04695192116667	0.2	0	0	0	399.804312553257	399.904290586244	0.0999780329875648	0.200035547371954
71488.5	100	475	3	83	1	1	0	1	2	0	1	112.5	157.5	-1.18927717129426	-1.06993398707684	0.2	0	0	0	400.104318819009	400.204296120442	0.0999773014336824	0.200028232764453
71563.5	100	476	3	84	1	1	0	1	2	0	2	67.5	112.5	2.13737377809401	-1.78097603131779	0.2	0	0	0	400.404321427923	400.504307994153	0.0999865662306547	0.200025307480246
71638.5	100	477	3	85	1	1	0	1	2	0	2	157.5	22.5	1.54261157174226	2.98861518155699	0.2	0	0	0	400.704344029073	400.804308895953	0.0999648668803275	0.200036034919322
71713.5	100	478	3	86	1	1	0	1	2	0	1	22.5	67.5	-1.71883066395087	-2.88510964308709	0.2	0	0	0	401.004368824419	401.104347588494	0.0999787640757859	0.200059928465635
71788.5	100	479	3	87	1	1	0	1	2	0	2	67.5	112.5	-1.07738711880435	-2.49941167936605	0.2	0	0	0	401.30435704859	401.40433361847	0.0999765698798001	0.200009460095316
71863.5	100	480	3	88	1	1	0	1	2	0	1	22.5	67.5	2.58037297617029	-2.21258068471257	0.2	0	0	0	401.604351855349	401.704339396674	0.0999875413253903	0.200018236879259
71938.5	100	481	3	89	1	1	0	1	2	0	2	67.5	22.5	-0.167314365688127	-3.11180791422965	0.2	0	0	0	401.904363972601	402.004342005588	0.0999780329875648	0.200024575926363
72013.5	100	482	3	90	1	1	0	1	2	0	1	112.5	67.5	1.09466039324362	-2.835851557225	0.2	0	0	0	402.204380966257	402.304356561042	0.0999755947850645	0.20003896066919
72088.5	100	483	3	91	1	1	0	1	2	0	1	22.5	157.5	-0.188540403479633	1.31882840972933	0.2	0	0	0	402.504384550266	402.604364289902	0.0999797396361828	0.200027989223599
72163.5	100	484	3	92	1	1	0	1	2	0	1	112.5	67.5	2.5468499120989	2.96826751522167	0.2	0	0	0	402.804395448416	402.904370555654	0.0999751072376966	0.200031158514321
72238.5	100	485	3	93	1	1	0	1	2	0	2	157.5	22.5	1.8924320543082	2.48316389945797	0.2	0	0	0	403.104401714634	403.204414124135	0.100012409500778	0.200031158979982
72313.5	100	486	3	94	1	1	0	1	2	0	2	67.5	22.5	-2.20137686946641	-1.53598025914068	0.2	0	0	0	403.404417976737	403.50439113332	0.0999731565825641	0.200003852602094
72388.5	100	487	3	95	1	1	0	1	2	3	1	112.5	157.5	2.9619981359073	2.18900138037338	0.2	0	0	0	403.704412295949	403.804415928666	0.100003632716835	0.200021162629128
72463.5	100	488	3	96	1	1	0	1	2	3	1	22.5	157.5	1.60466779173477	-0.527054046198563	0.2	0	0	0	404.004473418929	404.104402202182	0.0999287832528353	0.200057490263134
72538.5	100	489	3	97	1	1	0	1	2	3	2	157.5	22.5	2.28755506878548	-1.97199265256591	0.2	0	0	0	404.304464568384	404.404448208865	0.0999836404807866	0.200062366202474
72613.5	100	490	3	98	1	1	0	1	2	1	-1	0	135	-2.79602415240099	-2.24783980600576	0.2	0	0	0	404.604471078143	404.704426680692	0.0999556025490165	0.200022869277745
72688.5	100	491	3	99	1	1	0	1	2	3	2	157.5	112.5	2.02798005991192	0.798370212556154	0.2	0	0	0	404.904445161112	405.00442636339	0.0999812022782862	0.200018480420113
72763.5	100	492	3	100	1	1	0	1	2	3	1	112.5	67.5	-0.185675362559628	-2.32500120090237	0.2	0	0	0	405.204463861417	405.304439943749	0.0999760823324323	0.200037498027086
72838.5	100	493	3	101	1	1	0	1	2	3	2	67.5	22.5	-2.79146388930434	3.07598347701404	0.2	0	0	0	405.504473296925	405.604453524109	0.0999802271835506	0.200033353175968
72913.5	100	494	3	102	1	1	0	1	2	3	2	67.5	112.5	-1.03402338422197	0.795119272725746	0.2	0	0	0	405.80447907513	405.904464178253	0.09998510312289	0.200025551021099
72988.5	100	495	3	103	1	1	0	1	2	0	1	112.5	67.5	-2.61660495381872	0.166682953172563	0.2	0	0	0	406.10448680399	406.204473126214	0.0999863222241402	0.200022625736892
73063.5	100	496	3	104	1	1	0	1	2	0	2	157.5	112.5	-0.491334389837515	-0.576763361621384	0.2	0	0	0	406.404497946147	406.504509137012	0.100011190865189	0.200024819932878
73138.5	100	497	3	105	1	1	0	1	2	0	1	112.5	157.5	0.243475518686123	0.604079534143934	0.2	0	0	0	406.704509331845	406.804489559028	0.0999802271835506	0.200000194832683
73213.5	100	498	3	106	1	1	0	1	2	0	2	67.5	112.5	2.67155120848235	-0.194850560143616	0.2	0	0	0	407.004515841603	407.104500213638	0.0999843720346689	0.200026282574981
73288.5	100	499	3	107	1	1	0	1	2	0	1	112.5	157.5	0.633386497595185	2.91784102723494	0.2	0	0	0	407.304525277112	407.404507698491	0.0999824213795364	0.200025063473731
73363.5	100	500	3	108	1	1	0	1	2	0	2	67.5	112.5	1.55596386440965	-0.019666831705591	0.2	0	0	0	407.604531299323	407.704515427351	0.0999841280281544	0.200023600831628
73438.5	100	501	3	109	1	1	0	1	2	0	2	157.5	22.5	-0.587114379230737	2.85550820390277	0.2	0	0	0	407.904543416575	408.004525350407	0.0999819338321686	0.200027989223599
73513.5	100	502	3	110	1	1	0	1	2	0	1	22.5	67.5	-0.940663230566824	1.10281475868959	0.2	0	0	0	408.204581865575	408.304518450517	0.0999365849420428	0.200056515168399
73588.5	100	503	3	111	1	1	0	1	2	0	2	157.5	22.5	2.41420338686686	0.394536182269225	0.2	0	0	0	408.504553266335	408.604527398478	0.099974132142961	0.200034815818071
73663.5	100	504	3	112	1	1	0	1	2	0	1	112.5	157.5	1.32202567586872	1.14457929539303	0.2	0	0	0	408.804550267756	408.904535370879	0.09998510312289	0.200022869277745
73738.5	100	505	3	113	1	1	0	1	2	0	1	22.5	157.5	-0.84502015881037	0.828449038717921	0.2	0	0	0	409.104559703264	409.20455333963	0.0999936363659799	0.20002433238551
73813.5	100	506	3	114	1	1	0	1	2	0	2	67.5	22.5	0.053399106176824	0.562242776552704	0.2	0	0	0	409.404568894766	409.504547902849	0.0999790080823004	0.200015555135906
73888.75	100	507	3	115	1	1	0	1	2	0	2	157.5	112.5	-1.87574855096564	3.08885713349369	0.2	0	0	0	409.704603930004	409.804584644735	0.0999807147309184	0.20005602715537
73963.5	100	508	3	116	1	1	0	1	2	0	1	112.5	67.5	-1.58676807762288	1.51316224566403	0.2	0	0	0	410.004584596027	410.104565066751	0.0999804707244039	0.199999951291829
74038.75	100	509	3	117	1	1	0	1	2	0	1	112.5	67.5	0.0474145327532267	0.114210950356259	0.2	0	0	0	410.304619143717	410.404585961252	0.09996681753546	0.200054076965898
74113.75	100	510	3	118	1	1	0	1	2	0	2	157.5	112.5	-2.00720404413013	0.40713310906879	0.2	0	0	0	410.604629798327	410.7046119757	0.0999821773730218	0.20004383707419
74188.75	100	511	3	119	1	1	0	1	2	0	1	112.5	67.5	1.32032178816473	-1.67092882896229	0.2	0	0	0	410.904624361545	411.00459898077	0.0999746192246675	0.200012385845184
74263.75	100	512	3	120	1	1	0	1	2	0	1	22.5	157.5	1.75780568590995	1.67181558278717	0.2	0	0	0	411.204617461655	411.304597688839	0.0999802271835506	0.200018480885774
74338.75	100	513	3	121	1	1	0	1	2	0	2	157.5	22.5	1.23130712679756	-1.30361529909993	0.2	0	0	0	411.504630798008	411.604613462929	0.0999826649203897	0.200033109169453
74413.75	100	514	3	122	1	1	0	1	2	0	1	22.5	67.5	-0.240169244070085	-2.29797387384738	0.2	0	0	0	411.804629749618	411.904612658545	0.0999829089269042	0.200016286689788
74488.75	100	515	3	123	1	1	0	1	2	0	2	67.5	112.5	-3.00560018661166	-0.988228156117124	0.2	0	0	0	412.104639428668	412.204600394703	0.0999609660357237	0.200026770122349
74563.75	100	516	3	124	1	1	0	1	2	0	2	157.5	22.5	0.0956370069650596	-1.88478270756849	0.2	0	0	0	412.404652033933	412.504633236211	0.0999812022782862	0.200051639229059
74638.75	100	517	3	125	1	1	0	1	2	0	2	67.5	22.5	-0.470377760417586	-2.10700467093918	0.2	0	0	0	412.704659274779	412.804641696159	0.0999824213795364	0.200026038568467
74713.75	100	518	3	126	1	1	0	1	2	0	1	112.5	157.5	-2.33388028917313	-0.863207454198406	0.2	0	0	0	413.004694066476	413.104676243849	0.0999821773730218	0.20005237031728
74788.75	100	519	3	127	1	1	0	1	2	0	2	67.5	22.5	2.83849426067245	2.75920409870231	0.2	0	0	0	413.304697650485	413.404691774864	0.099994124379009	0.200021406635642
74863.75	100	520	3	128	1	1	0	1	2	0	2	67.5	112.5	-0.494283385347527	0.745958366139249	0.2	0	0	0	413.604681729805	413.704662932083	0.0999812022782862	0.199989954940975
74938.75	100	521	3	129	1	1	0	1	2	0	1	22.5	157.5	-2.81517226264488	1.50914445633943	0.2	0	0	0	413.90472407965	414.004674805794	0.0999507261440158	0.200061147566885
75013.75	100	522	3	130	1	1	0	1	2	0	1	22.5	157.5	-3.11311780031058	-3.108429022846	0.2	0	0	0	414.20469645597	414.30469374964	0.0999972936697304	0.200021650176495
75088.75	100	523	3	131	1	1	0	1	2	0	2	157.5	112.5	-1.62737972052367	0.862431799263779	0.2	0	0	0	414.504721738864	414.604690750595	0.0999690117314458	0.200027989223599
75163.75	100	524	3	132	1	1	0	1	2	3	2	67.5	112.5	1.60771583198101	-1.23612290821163	0.2	0	0	0	414.804714838974	414.904698479455	0.0999836404807866	0.200024088378996
75238.75	100	525	3	133	1	1	0	1	2	3	1	22.5	157.5	-2.54550255190151	-1.98171545256457	0.2	0	0	0	415.104722324293	415.204705964308	0.0999836400151253	0.200023844838142
75313.75	100	526	3	134	1	1	0	1	2	3	2	157.5	112.5	1.28125446846111	-0.194182704735284	0.2	0	0	0	415.404733465984	415.504709792323	0.0999763263389468	0.200027501676232
75388.75	100	527	3	135	1	1	0	1	2	3	2	67.5	22.5	-2.04838413225169	-2.6892629465709	0.2	0	0	0	415.704738756642	415.80471995892	0.0999812022782862	0.200028964318335
80309.5	100	528	4	0	2	1	90	2	1	3	1	112.5	157.5	2.28978272881377	-1.28439432296176	0.183333333333333	0	0	0	435.388623258565	435.488590319641	0.0999670610763133	-1
80384.5	100	529	4	1	2	1	90	2	1	3	2	67.5	112.5	0.0139861399059127	-3.06647530763399	0.2	0	0	0	435.688636350911	435.788597073406	0.0999607224948704	0.200046031270176
80480.5	100	530	4	2	2	1	90	2	1	3	1	22.5	157.5	-1.9047639668066	0.635074545438127	0.283333333333333	0	0	0	436.071960163768	436.17193819629	0.0999780325219035	0.2833630903624
80543	100	531	4	3	2	1	90	2	1	3	2	157.5	22.5	1.49254480517559	-0.14111894004318	0.15	0	0	0	436.321964735165	436.421943742782	0.0999790076166391	0.150026538874954
80618	100	532	4	4	2	1	90	2	1	0	2	67.5	22.5	-1.25177862502968	2.23941404496916	0.2	0	0	0	436.621973926667	436.721954641398	0.0999807147309184	0.200030183885247
80688.75	100	533	4	5	2	1	90	2	1	0	2	157.5	22.5	2.45186399096493	2.3235477332746	0.183333333333333	0	0	0	436.905337504577	437.005323095247	0.0999855906702578	0.183382863178849
80763.75	100	534	4	6	2	1	90	2	1	0	1	22.5	67.5	1.25153049581492	-0.201013946277642	0.2	0	0	0	437.205331336241	437.305333993863	0.100002657622099	0.200008240994066
80822	100	535	4	7	2	1	90	2	1	0	2	67.5	112.5	-1.75288095016453	-1.75118397193083	0.133333333333333	0	0	0	437.438683466986	437.538669545669	0.0999860786832869	0.133349473122507
80922.25	100	536	4	8	2	1	90	2	1	0	2	157.5	22.5	0.423431805772652	-1.45424846581503	0.3	0	0	0	437.838694828562	437.938676274847	0.0999814462848008	0.30002528289333
81009.75	100	537	4	9	2	1	90	2	1	0	1	22.5	157.5	2.56420968397957	-0.33572892232692	0.25	0	0	0	438.188707421534	438.288688136265	0.0999807147309184	0.250031146686524
81101.25	100	538	4	10	2	1	90	2	1	0	2	157.5	22.5	-0.969236351356501	2.52248701874163	0.266666666666667	0	0	0	438.555355875753	438.655350487214	0.0999946114607155	0.266667739488184
81197.25	100	539	4	11	2	1	90	2	1	0	2	157.5	22.5	-2.41127851131623	2.50454242047722	0.283333333333333	0	0	0	438.938713334035	439.038710871246	0.0999975372105837	0.283362846821547
81259.75	100	540	4	12	2	1	90	2	1	0	1	22.5	157.5	1.09567337608034	0.56002599219409	0.15	0	0	0	439.188740335871	439.288700326812	0.0999599909409881	0.150029464624822
81355.5	100	541	4	13	2	1	90	2	1	0	2	67.5	112.5	0.694999813866287	2.26476706579257	0.283333333333333	0	0	0	439.57208048366	439.672049007844	0.099968524184078	0.28338015684858
81447.25	100	542	4	14	2	1	90	2	1	0	2	157.5	112.5	-0.560099526671981	-1.7825595333742	0.266666666666667	0	0	0	439.938742591068	440.03872159915	0.0999790080823004	0.266693583223969
81526.25	100	543	4	15	2	1	90	2	1	0	1	22.5	67.5	-2.09277393815196	-2.32552818225465	0.216666666666667	0	0	0	440.255429335404	440.355391520541	0.0999621851369739	0.216707736253738
81588.75	100	544	4	16	2	1	90	2	1	0	1	112.5	157.5	2.34651480438553	-0.765955580205843	0.15	0	0	0	440.505409282167	440.605392678641	0.099983396474272	0.15001776162535
81655.5	100	545	4	17	2	1	90	2	1	0	1	112.5	67.5	1.45102853387266	0.237147698884379	0.166666666666667	0	0	0	440.772082872689	440.872074071318	0.0999911986291409	0.166690194047987
81726.25	100	546	4	18	2	1	90	2	1	0	2	67.5	22.5	-2.64718729330467	2.47448785448003	0.183333333333333	0	0	0	441.055433284957	441.155417412985	0.0999841280281544	0.183359213639051
81809.75	100	547	4	19	2	1	90	2	1	0	1	22.5	157.5	1.07231204732819	0.0654019046170311	0.233333333333333	0	0	0	441.388795387931	441.488772445358	0.0999770574271679	0.233377974946052
81888.75	100	548	4	20	2	1	90	2	1	0	1	22.5	157.5	-0.501203348397111	-0.0354742948256379	0.216666666666667	0	0	0	441.70546969818	441.805448949803	0.0999792516231537	0.216697252821177
81963.75	100	549	4	21	2	1	90	2	1	0	1	112.5	157.5	-2.98908824953525	1.39986581900922	0.2	0	0	0	442.005479377229	442.105441562366	0.0999621851369739	0.2000304274261
82026.25	100	550	4	22	2	1	90	2	1	0	2	157.5	112.5	-3.08294526777865	-1.82196954327507	0.15	0	0	0	442.255455910694	442.355441745371	0.0999858346767724	0.150014348328114
82093	100	551	4	23	2	1	90	2	1	0	1	22.5	157.5	-2.19101412544979	2.50263317503544	0.166666666666667	0	0	0	442.522163147107	442.62214922579	0.0999860786832869	0.16672140173614
82155.5	100	552	4	24	2	1	90	2	1	0	2	67.5	22.5	-1.71843384486608	-2.75512348850044	0.15	0	0	0	442.772166011855	442.872127709445	0.099961697589606	0.150016786064953
82255.5	100	553	4	25	2	1	90	2	1	0	2	67.5	112.5	2.22590940986986	0.64506503076469	0.3	0	0	0	443.172146653291	443.272132244427	0.0999855911359191	0.300018943846226
82343	100	554	4	26	2	1	90	2	1	0	2	157.5	22.5	-0.320632959545233	-1.40753847365904	0.25	0	0	0	443.52215973381	443.622145080939	0.0999853471294045	0.250027489382774
82397.25	100	555	4	27	2	1	90	2	1	0	2	157.5	22.5	1.44845472194757	1.03239821175771	0.116666666666667	0	0	0	443.738829923794	443.83881575847	0.0999858346767724	0.116684842854738
82455.5	100	556	4	28	2	1	90	2	1	0	1	22.5	157.5	-0.672942881830649	1.49700216968358	0.133333333333333	0	0	0	443.972171083093	444.072157405317	0.0999863222241402	0.133355324622244
82522.25	100	557	4	29	2	1	90	2	1	0	1	112.5	157.5	1.31355797224371	2.27741503518577	0.166666666666667	0	0	0	444.238845649175	444.338830508757	0.0999848595820367	0.166688243858516
82572.25	100	558	4	30	2	1	90	2	1	0	1	112.5	67.5	0.527543150538759	-1.32572806119241	0.1	0	0	0	444.438867055811	444.538835335989	0.0999682801775634	0.100036547053605
82651.25	100	559	4	31	2	1	90	2	1	0	2	157.5	112.5	-0.789727106636762	-2.01155063608795	0.216666666666667	0	0	0	444.755527224857	444.855514278635	0.0999870537780225	0.216691888868809
82718	100	560	4	32	2	1	90	2	1	0	2	67.5	112.5	1.95149155454759	1.05942282992534	0.166666666666667	0	0	0	445.022224708926	445.122207618318	0.0999829093925655	0.16671043029055
82797.25	100	561	4	33	2	1	90	2	1	3	2	157.5	22.5	2.61282670384834	0.197954315715917	0.216666666666667	0	0	0	445.33887439454	445.438856328372	0.0999819338321686	0.216666776221246
82872.25	100	562	4	34	2	1	90	2	1	3	2	157.5	112.5	-1.33843729880158	3.14113167871647	0.2	0	0	0	445.638885780238	445.738863813225	0.0999780329875648	0.200029451865703
82926.25	100	563	4	35	2	1	90	2	1	3	1	112.5	157.5	-1.71951723049996	-0.178701738521537	0.116666666666667	0	0	0	445.855559139512	445.955541317351	0.0999821778386831	0.116695326287299
82984.75	100	564	4	36	2	1	90	2	1	1	-1	90	45	-0.514145665926349	1.07438865548388	0.133333333333333	0	0	0	446.088897861075	446.188881501555	0.0999836404807866	0.133356543723494
83034.75	100	565	4	37	2	1	90	2	1	3	2	67.5	22.5	2.6825495440478	-0.632362851142156	0.1	0	0	0	446.288904638961	446.388886328787	0.099981689825654	0.100023137405515
83101.25	100	566	4	38	2	1	90	2	1	3	1	22.5	157.5	2.39382057641143	-0.32540393233868	0.166666666666667	0	0	0	446.555576279294	446.655554555822	0.0999782765284181	0.166689950507134
83193	100	567	4	39	2	1	90	2	1	3	2	67.5	112.5	2.24404276993381	-0.976224589462248	0.266666666666667	0	0	0	446.922251064796	447.022249821573	0.0999987567774951	0.266696508973837
83293	100	568	4	40	2	1	90	2	1	3	1	22.5	67.5	2.68706844574981	-2.53166627252481	0.3	0	0	0	447.322266327683	447.422241678461	0.0999753507785499	0.300016506109387
83388.75	100	569	4	41	2	1	90	2	1	0	1	22.5	157.5	2.42937127461751	-0.968259855903264	0.283333333333333	0	0	0	447.705605256371	447.805618884973	0.100013628602028	0.283363577909768
83443	100	570	4	42	2	1	90	2	1	0	1	112.5	157.5	2.84682923319366	-2.06280623683437	0.116666666666667	0	0	0	447.922305434477	448.022269082721	0.0999636482447386	0.116686549503356
83505.5	100	571	4	43	2	1	90	2	1	0	1	112.5	67.5	1.12295155542744	-2.4065246708097	0.15	0	0	0	448.17228562478	448.272268777713	0.0999831529334188	0.150016542058438
83576.25	100	572	4	44	2	1	90	2	1	0	1	22.5	157.5	2.5830198301362	1.95750537853649	0.183333333333333	0	0	0	448.455626772251	448.555608218536	0.0999814462848008	0.183357994537801
83676.25	100	573	4	45	2	1	90	2	1	0	2	157.5	112.5	-0.523914800397411	0.463817129891637	0.3	0	0	0	448.855666659772	448.955650300253	0.0999836404807866	0.300058441236615
83726.25	100	574	4	46	2	1	90	2	1	0	2	157.5	22.5	0.6837205243433	1.16653474154723	0.1	0	0	0	449.055671243463	449.155653420836	0.0999821773730218	0.100020943209529
83818	100	575	4	47	2	1	90	2	1	0	1	22.5	67.5	0.152919813204361	2.51942129551541	0.266666666666667	0	0	0	449.422346028965	449.522324061487	0.0999780325219035	0.266692608129233
83897.25	100	576	4	48	2	1	90	2	1	0	2	157.5	22.5	-1.60886505264675	2.97662031096331	0.216666666666667	0	0	0	449.739025946707	449.839004710782	0.0999787640757859	0.216701885219663
83980.5	100	577	4	49	2	1	90	2	1	0	2	67.5	22.5	-0.940077584625798	-3.04143076716438	0.233333333333333	0	0	0	450.072363912128	450.172330486123	0.0999665739946067	0.233359201345593
84068	100	578	4	50	2	1	90	2	1	0	2	157.5	112.5	-0.403256738880743	-1.63262495863946	0.25	0	0	0	450.422376261093	450.522356732283	0.0999804711900651	0.250045774970204
84151.25	100	579	4	51	2	1	90	2	1	0	2	157.5	22.5	-2.13549249379566	-0.947875715970803	0.233333333333333	0	0	0	450.755741533823	450.855706156697	0.0999646228738129	0.233384801540524
84243	100	580	4	52	2	1	90	2	1	0	1	112.5	67.5	2.60410875105166	-0.753395561843031	0.266666666666667	0	0	0	451.122391450685	451.222356073558	0.0999646228738129	0.266685293987393
84326.25	100	581	4	53	2	1	90	2	1	0	1	22.5	67.5	-0.773647962456097	-0.5704012581895	0.233333333333333	0	0	0	451.455735267606	451.555715982337	0.0999807147309184	0.233379194047302
84380.5	100	582	4	54	2	1	90	2	1	0	2	67.5	112.5	1.59692696770403	2.46640963538864	0.116666666666667	0	0	0	451.672403262928	451.77238812251	0.0999848595820367	0.116687280591577
84443	100	583	4	55	2	1	90	2	1	0	2	67.5	112.5	-1.61522386191858	-1.43867575041149	0.15	0	0	0	451.922409297433	452.022389768157	0.0999804707244039	0.150021174922585
84514	100	584	4	56	2	1	90	2	1	0	2	157.5	112.5	0.886684131140384	2.55234188799753	0.183333333333333	0	0	0	452.205749957357	452.305735060479	0.09998510312289	0.183360189199448
84609.75	100	585	4	57	2	1	90	2	1	0	1	112.5	67.5	2.29838744392103	1.16378351676089	0.283333333333333	0	0	0	452.589097663295	452.689077890012	0.0999802267178893	0.283362602815032
84668	100	586	4	58	2	1	90	2	1	0	1	112.5	157.5	-0.707506026964994	-0.841069230978376	0.133333333333333	0	0	0	452.822414929513	452.922392230947	0.0999773014336824	0.133337039500475
84726.5	100	587	4	59	2	1	90	2	1	0	2	157.5	22.5	-1.29278115832612	1.97065677784764	0.133333333333333	0	0	0	453.055781689007	453.155759477988	0.0999777889810503	0.133389458060265
84814	100	588	4	60	2	1	90	2	1	0	1	22.5	67.5	2.69659273638677	1.67217389133254	0.25	0	0	0	453.405786967371	453.505770364311	0.0999833969399333	0.250027489382774
84893	100	589	4	61	2	1	90	2	1	3	2	67.5	112.5	1.12651574044111	0.0997191478197412	0.216666666666667	0	0	0	453.722435189877	453.822416392155	0.0999812022782862	0.216664825566113
84943	100	590	4	62	2	1	90	2	1	3	1	22.5	67.5	2.43682716934369	-3.02438459731954	0.1	0	0	0	453.922439530026	454.022420244291	0.0999807142652571	0.100023137871176
85009.75	100	591	4	63	2	1	90	2	1	3	2	157.5	22.5	-1.565624846926	-1.3897834690632	0.166666666666667	0	0	0	454.189113120548	454.289094322827	0.0999812022782862	0.166692876257002
85105.5	100	592	4	64	2	1	90	2	1	2	-1	135	90	2.54974083421242	-0.195052996926026	0.283333333333333	0	0	0	454.572457657196	454.672436421271	0.0999787640757859	0.283363334368914
85176.5	100	593	4	65	2	1	90	2	1	3	2	67.5	22.5	-0.926905000538182	1.48173591782465	0.183333333333333	0	0	0	454.855797098018	454.955779518932	0.0999824209138751	0.183360676746815
85234.75	100	594	4	66	2	1	90	2	1	3	1	22.5	157.5	-2.12085425156044	-1.82362120622477	0.133333333333333	0	0	0	455.08914362127	455.189123116899	0.0999794956296682	0.133364102337509
85297.25	100	595	4	67	2	1	90	2	1	3	1	112.5	157.5	-1.14563095065981	-1.94832625466251	0.15	0	0	0	455.339143804274	455.439127688296	0.0999838840216398	0.150020687375218
85384.75	100	596	4	68	2	1	90	2	1	3	2	157.5	112.5	-1.57554131264124	2.18521493938178	0.25	0	0	0	455.689155421685	455.789136379957	0.0999809582717717	0.250027733389288
85439	100	597	4	69	2	1	90	2	1	0	1	22.5	67.5	-1.03318002366601	2.29211108529066	0.116666666666667	0	0	0	455.90582585521	456.005809251685	0.099983396474272	0.116689475253224
85501.5	100	598	4	70	2	1	90	2	1	0	2	157.5	22.5	1.66340062513695	-2.2303164726452	0.15	0	0	0	456.15583871631	456.255820406135	0.099981689825654	0.150029464624822
85559.75	100	599	4	71	2	1	90	2	1	0	1	112.5	67.5	-0.292429699451606	-2.68152783461553	0.133333333333333	0	0	0	456.389178412966	456.489158396143	0.099979983177036	0.133358006831259
85647.25	100	600	4	72	2	1	90	2	1	0	1	112.5	157.5	0.512860845056668	-2.83547801144742	0.25	0	0	0	456.739178571384	456.839180985	0.100002413615584	0.250020175240934
85718	100	601	4	73	2	1	90	2	1	0	2	67.5	112.5	0.522136236925172	-3.04945229212852	0.183333333333333	0	0	0	457.022521181498	457.122506772634	0.0999855911359191	0.183340196497738
85772.25	100	602	4	74	2	1	90	2	1	0	2	157.5	112.5	0.045506871325272	1.63908580423557	0.116666666666667	0	0	0	457.239224285819	457.339214508887	0.0999902230687439	0.116717513184994
