onset	duration	total_event_number	stream_number	event_num_per_stream	timing_predictability	target_col	target_ori	n_targets	n_distractors	is_target	ori_pair_num	att_ori	unatt_ori	gabor_phase_att	gabor_phase_unatt	blank_dur	response	rt	correct	time_stimon	time_stimoff	stim_dur	ISI_dur
49314	100	0	0	0	1	1	90	1	2	3	1	112.5	67.5	0.219495629409912	1.35096125568851	0.2	0	0	0	219.734259956051	219.834202636499	0.0999426804482937	-1
49389	100	1	0	1	1	1	90	1	2	3	1	22.5	67.5	1.81657044620698	-1.39167359333846	0.2	0	0	0	220.03425525059	220.13420817093	0.0999529203400016	0.200052614090964
49464	100	2	0	2	1	1	90	1	2	3	2	67.5	112.5	-0.757303919814179	2.66948914779642	0.2	0	0	0	220.33423640416	220.434219313087	0.0999829089269042	0.200028233230114
49539	100	3	0	3	1	1	90	1	2	3	1	22.5	157.5	-2.52399448438338	-0.0531183093549066	0.2	0	0	0	220.634255348239	220.734229479916	0.0999741316772997	0.200036035152152
49614	100	4	0	4	1	1	90	1	2	0	2	157.5	22.5	-0.922565192361746	2.23372691721125	0.2	0	0	0	220.934241133975	221.034241353394	0.100000219419599	0.200011654058471
49689	100	5	0	5	1	1	90	1	2	0	2	157.5	112.5	-1.1805274553439	1.19630180249789	0.2	0	0	0	221.234261053381	221.334244693629	0.0999836402479559	0.200019699987024
49764	100	6	0	6	1	1	90	1	2	0	1	22.5	67.5	2.72704959713356	2.86719200201089	0.2	0	0	0	221.53427000111	221.63425315381	0.0999831527005881	0.200025307480246
49839	100	7	0	7	1	1	90	1	2	0	1	22.5	157.5	1.18822909675378	1.14637611575138	0.2	0	0	0	221.834279924165	221.934254543623	0.0999746194574982	0.20002677035518
49914	100	8	0	8	1	1	90	1	2	0	2	157.5	22.5	0.261460513166679	-0.45971751004236	0.2	0	0	0	222.134272049181	222.23427470657	0.100002657389268	0.200017505558208
49989	100	9	0	9	1	1	90	1	2	0	1	112.5	67.5	0.767229872983299	-0.59146803332651	0.2	0	0	0	222.434317568317	222.534283166751	0.0999655984342098	0.200042861746624
50064	100	10	0	10	1	1	90	1	2	0	1	112.5	157.5	-2.35795096504798	0.676578329127752	0.2	0	0	0	222.734314569505	222.834293577354	0.0999790078494698	0.200031402753666
50139	100	11	0	11	1	1	90	1	2	0	1	112.5	157.5	0.215229966215032	1.59511573986563	0.2	0	0	0	223.03432083549	223.134322030004	0.100001194514334	0.200027258135378
50214	100	12	0	12	1	1	90	1	2	0	2	157.5	22.5	1.26052599293503	2.13031122757306	0.2	0	0	0	223.334353920305	223.434309278848	0.0999553585425019	0.200031890301034
50289	100	13	0	13	1	1	90	1	2	0	1	112.5	157.5	-0.665031062373372	-2.32911405791954	0.2	0	0	0	223.63432410243	223.734304573387	0.0999804709572345	0.200014823582023
50364	100	14	0	14	1	1	90	1	2	0	2	157.5	22.5	-1.59744235805974	-2.74960957166906	0.2	0	0	0	223.934329393087	224.034975464223	0.100646071135998	0.200024819700047
50439	100	15	0	15	1	1	90	1	2	0	1	112.5	157.5	-0.585075694897548	-2.46210927119257	0.2	0	0	0	224.234344436089	224.334323200397	0.0999787643086165	0.199368971865624
50514	100	16	0	16	1	1	90	1	2	0	1	22.5	157.5	-1.10839675512439	-2.61226723769281	0.2	0	0	0	224.53438361641	224.634329466149	0.0999458497390151	0.200060416013002
50589	100	17	0	17	1	1	90	1	2	0	1	112.5	67.5	1.1641537086095	-2.78702537019999	0.2	0	0	0	224.834385249997	224.934348897776	0.0999636477790773	0.200055783847347
50664	100	18	0	18	1	1	90	1	2	0	1	112.5	67.5	-2.25058272706096	-3.08879526444992	0.2	0	0	0	225.134364209138	225.234347118065	0.0999829089269042	0.200015311362222
50739	100	19	0	19	1	1	90	1	2	0	1	112.5	157.5	-2.57272884941976	-1.57378765341942	0.2	0	0	0	225.434371206444	225.53435338405	0.0999821776058525	0.200024088378996
50814	100	20	0	20	1	1	90	1	2	0	2	157.5	112.5	-1.17823991773393	-2.43049866543865	0.2	0	0	0	225.7343811295	225.834398903186	0.100017773685977	0.200027745449916
50889.25	100	21	0	21	1	1	90	1	2	0	1	112.5	157.5	1.23006810877244	1.16391061761058	0.2	0	0	0	226.034420065815	226.134397854796	0.0999777889810503	0.200021162629128
50964.25	100	22	0	22	1	1	90	1	2	0	2	67.5	112.5	1.63128453353471	0.727673050875878	0.2	0	0	0	226.334408777533	226.434377789265	0.0999690117314458	0.20001092273742
51039.25	100	23	0	23	1	1	90	1	2	0	2	67.5	112.5	1.00149675363643	2.92580726184007	0.2	0	0	0	226.634406022495	226.734388443874	0.0999824213795364	0.200028233230114
51114.25	100	24	0	24	1	1	90	1	2	0	2	67.5	22.5	2.73134232042186	2.89351941574732	0.2	0	0	0	226.934409850277	227.034427380189	0.100017529912293	0.200021406402811
51189.25	100	25	0	25	1	1	90	1	2	0	1	22.5	157.5	-0.844431885291033	1.5502184223197	0.2	0	0	0	227.23442318663	227.334407314658	0.0999841280281544	0.199995806440711
51264.25	100	26	0	26	1	1	90	1	2	0	1	22.5	67.5	-2.95472889784194	2.82501530765435	0.2	0	0	0	227.534437742084	227.634412849089	0.099975107004866	0.2000304274261
51339.25	100	27	0	27	1	1	90	1	2	0	1	112.5	157.5	-0.0765115226488966	-2.96524073038786	0.2	0	0	0	227.834473752882	227.934437644668	0.0999638917855918	0.200060903793201
51414.25	100	28	0	28	1	1	90	1	2	0	2	67.5	22.5	-0.353811794000493	-1.709409870518	0.2	0	0	0	228.134457588196	228.234452443896	0.0999948557000607	0.200019943527877
51489.25	100	29	0	29	1	1	90	1	2	0	1	22.5	67.5	-2.01458130099634	2.67758882890112	0.2	0	0	0	228.434453370282	228.534438961186	0.0999855909030885	0.200000926386565
51564.25	100	30	0	30	1	1	90	1	2	0	2	67.5	112.5	1.0517838701043	-0.154227910094083	0.2	0	0	0	228.734446958173	228.83445302886	0.100006070686504	0.200007996987551
51639.25	100	31	0	31	1	1	90	1	2	0	2	157.5	22.5	-0.997361068118213	-1.84354453082392	0.2	0	0	0	229.034481505863	229.134460513946	0.0999790080823004	0.200028477003798
51714.25	100	32	0	32	1	1	90	1	2	0	1	112.5	67.5	-1.64402926224589	1.61356017659798	0.2	0	0	0	229.334485821426	229.434471168322	0.0999853468965739	0.200025307480246
51789.25	100	33	0	33	1	1	90	1	2	0	2	67.5	22.5	-1.08416746048873	-0.480359817761019	0.2	0	0	0	229.634490380529	229.734457685612	0.0999673050828278	0.200019212206826
51864.25	100	34	0	34	1	1	90	1	2	0	1	22.5	67.5	2.78845341517874	0.270762675031889	0.2	1	0	0	229.934494696092	230.034481018316	0.0999863222241402	0.200037010479718
51939.25	100	35	0	35	1	1	90	1	2	0	2	157.5	112.5	-3.09305869782947	-1.15654891587344	0.2	0	0	0	230.234513883945	230.334488259396	0.0999743754509836	0.2000328656286
52014.25	100	36	0	36	1	1	90	1	2	0	1	112.5	67.5	-0.877692079613854	-1.62281505385177	0.2	1	0	0	230.534517955501	230.634490136756	0.0999721812549978	0.200029696105048
52089.25	100	37	0	37	1	1	90	1	2	3	2	67.5	22.5	-1.38422999331112	-2.59385123609737	0.2	0	0	0	230.834532754729	230.934506642632	0.0999738879036158	0.20004261797294
52164.25	100	38	0	38	1	1	90	1	2	3	1	22.5	67.5	-1.87656471122975	0.671374833087375	0.2	0	0	0	231.134541214909	231.234520222992	0.0999790080823004	0.200034572277218
52239.25	100	39	0	39	1	1	90	1	2	3	2	67.5	112.5	-0.424400900530881	2.84469223841068	0.2	0	0	0	231.434534558794	231.534522831673	0.0999882728792727	0.200014335801825
52314.25	100	40	0	40	1	1	90	1	2	2	-1	45	90	-1.75690635318249	3.05819634231238	0.2	0	0	0	231.734578859061	231.834522514604	0.0999436555430293	0.2000560273882
52389.25	100	41	0	41	1	1	90	1	2	3	2	157.5	112.5	2.63178392023669	1.66647152896615	0.2	0	0	0	232.034554404905	232.13453585119	0.0999814462848008	0.200031890301034
52464.25	100	42	0	42	1	1	90	1	2	3	1	112.5	157.5	0.00650031393448236	2.7231776248916	0.2	0	0	0	232.334571642336	232.434554063715	0.0999824213795364	0.200035791145638
52539.25	100	43	0	43	1	1	90	1	2	3	1	22.5	157.5	1.24466223349776	-0.865648131340704	0.2	0	0	0	232.634581809165	232.734578371514	0.0999965623486787	0.200027745449916
52614.25	100	44	0	44	1	1	90	1	2	3	1	112.5	67.5	-2.12154165782403	-1.26809422750506	0.2	0	0	0	232.93457978568	233.034592926968	0.100013141287491	0.200001414166763
52689.25	100	45	0	45	1	1	90	1	2	0	1	22.5	157.5	-0.22223535481462	2.66096908156225	0.2	0	0	0	233.234597998206	233.334579688031	0.099981689825654	0.200005071237683
52764.25	100	46	0	46	1	1	90	1	2	0	2	67.5	112.5	0.66934969398885	0.629068122297111	0.2	0	0	0	233.534608408809	233.634591805283	0.099983396474272	0.200028720777482
52839.25	100	47	0	47	1	1	90	1	2	0	2	157.5	112.5	2.15436177817959	1.06250238688316	0.2	0	0	0	233.834612968145	233.934592707548	0.0999797394033521	0.200021162861958
52914.25	100	48	0	48	1	1	90	1	2	0	1	22.5	67.5	-1.57157359458993	-3.06280156187699	0.2	0	0	0	234.134618990123	234.2345989733	0.099979983177036	0.200026282574981
52989.25	100	49	0	49	1	1	90	1	2	0	1	112.5	67.5	-0.253639810360079	-1.70568635610363	0.2	0	0	0	234.434626231203	234.534617917379	0.0999916861765087	0.200027257902548
53064.25	100	50	0	50	1	1	90	1	2	0	2	157.5	22.5	2.22939891188966	-0.110446502693791	0.2	0	0	0	234.734663704876	234.834624183364	0.0999604784883559	0.200045787496492
53139.25	100	51	0	51	1	1	90	1	2	0	2	157.5	22.5	2.08394411420579	1.45140579595201	0.2	0	0	0	235.034640957369	235.134624841623	0.0999838842544705	0.200016774004325
53214.25	100	52	0	52	1	1	90	1	2	0	2	67.5	112.5	-1.71213722635607	2.04708310232775	0.2	0	0	0	235.334660876542	235.434621111257	0.099960234714672	0.200036034919322
53289.25	100	53	0	53	1	1	90	1	2	0	1	112.5	67.5	0.238700700859953	1.61665407189586	0.2	0	0	0	235.634650075808	235.734632984735	0.0999829089269042	0.200028964551166
53364.25	100	54	0	54	1	1	90	1	2	0	2	67.5	112.5	1.64178257942306	-1.00722356385103	0.2	0	0	0	235.934650734067	236.034639982274	0.099989248206839	0.200017749331892
53439.25	100	55	0	55	1	1	90	1	2	0	1	112.5	67.5	-0.657911077966406	-0.743761934196149	0.2	0	0	0	236.2346645582	236.334649661323	0.09998510312289	0.200024575926363
53514.25	100	56	0	56	1	1	90	1	2	0	1	112.5	157.5	1.0894330076222	2.27673958848299	0.2	0	0	0	236.534677407006	236.634657146409	0.0999797394033521	0.200027745682746
53589.25	100	57	0	57	1	1	90	1	2	0	2	157.5	22.5	1.02587722742438	3.07603696836117	0.2	0	0	0	236.834682209883	236.934657560894	0.0999753510113806	0.200025063473731
53664.25	100	58	0	58	1	1	90	1	2	0	2	67.5	112.5	2.9683999639845	-0.0942856393404528	0.2	0	0	0	237.134683843469	237.234670897247	0.0999870537780225	0.200026282574981
53739.25	100	59	0	59	1	1	90	1	2	3	1	112.5	157.5	0.338548575420329	-1.91783486139336	0.2	0	0	0	237.434696204728	237.534712759312	0.100016554584727	0.200025307480246
53814.25	100	60	0	60	1	1	90	1	2	3	1	22.5	157.5	1.13589415631312	0.781856854688919	0.2	0	0	0	237.734700763831	237.834689524258	0.0999887604266405	0.199988004518673
53889.25	100	61	0	61	1	1	90	1	2	3	2	157.5	112.5	-0.941037350198993	0.225721547507715	0.2	0	0	0	238.034711418441	238.134692376945	0.0999809585046023	0.20002189418301
53964.25	100	62	0	62	1	1	90	1	2	2	-1	135	90	1.45930310415947	-0.869179034057789	0.2	0	0	0	238.334725486115	238.434730581706	0.100005095591769	0.200033109169453
54039.25	100	63	0	63	1	1	90	1	2	3	1	22.5	67.5	-1.11674448435683	-1.69325355519341	0.2	0	0	0	238.634756864514	238.734734653495	0.0999777889810503	0.200026282807812
54114.25	100	64	0	64	1	1	90	1	2	3	1	112.5	67.5	-0.000627163714981283	-0.720382045527624	0.2	0	0	0	238.934775077039	239.034753353568	0.0999782765284181	0.200040423544124
54189.25	100	65	0	65	1	1	90	1	2	3	2	157.5	22.5	-0.874367521455633	0.706221786433062	0.2	0	0	0	239.234760619234	239.334744991036	0.0999843718018383	0.2000072656665
54264.25	100	66	0	66	1	1	90	1	2	3	2	67.5	22.5	-1.21141619116083	-2.34465930677535	0.2	1	1.09216003376059	-1	239.53477346804	239.634746868396	0.099973400356248	0.200028477003798
54339.25	100	67	0	67	1	1	90	1	2	0	2	157.5	22.5	-2.28763262354876	0.257174896970851	0.2	0	0	0	239.83479850716	239.93478165986	0.0999831527005881	0.200051638763398
54414.25	100	68	0	68	1	1	90	1	2	0	1	112.5	67.5	-1.72363944230163	2.84188963292924	0.2	0	0	0	240.134799896972	240.234785000095	0.09998510312289	0.20001823711209
54489.25	100	69	0	69	1	1	90	1	2	0	1	22.5	157.5	0.278347580109838	1.53902204005675	0.2	0	0	0	240.4348146962	240.53479370405	0.0999790078494698	0.200029696105048
54564.25	100	70	0	70	1	1	90	1	2	0	2	67.5	112.5	-1.55917123097545	-1.55741302118224	0.2	0	0	0	240.734789998271	240.834781196667	0.0999911983963102	0.199996294220909
54639.25	100	71	0	71	1	1	90	1	2	0	1	22.5	157.5	-2.85312892265409	-0.512218974257634	0.2	0	0	0	241.034833079437	241.134790144395	0.0999570649582893	0.200051882769912
54714.25	100	72	0	72	1	1	90	1	2	0	1	22.5	157.5	1.90762431367439	-2.49859895639586	0.2	0	0	0	241.334813013906	241.43479348463	0.0999804707244039	0.200022869510576
54789.25	100	73	0	73	1	1	90	1	2	0	2	157.5	22.5	-1.34692078112214	1.48944645253086	0.2	0	0	0	241.634823180735	241.734828763874	0.100005583139136	0.200029696105048
54864.25	100	74	0	74	1	1	90	1	2	0	2	157.5	22.5	2.74031093007149	0.828519347008165	0.2	0	0	0	241.934824570315	242.034814793617	0.0999902233015746	0.199995806440711
54939.25	100	75	0	75	1	1	90	1	2	0	1	112.5	157.5	0.620718916261206	-2.05571203600041	0.2	0	0	0	242.234840101097	242.334822278703	0.0999821776058525	0.200025307480246
55014.25	100	76	0	76	1	1	90	1	2	0	2	67.5	112.5	-0.696945182864408	0.302015910358616	0.2	0	0	0	242.534846610855	242.634827813134	0.0999812022782862	0.20002433215268
55089.25	100	77	0	77	1	1	90	1	2	0	1	22.5	157.5	2.34424297798078	0.602273056551255	0.2	0	0	0	242.834861410083	242.934830421815	0.0999690117314458	0.200033596949652
55164.25	100	78	0	78	1	1	90	1	2	0	2	157.5	112.5	2.49582230166961	0.484942095047149	0.2	0	0	0	243.134859874146	243.234843026847	0.0999831527005881	0.200029452331364
55239.25	100	79	0	79	1	1	90	1	2	0	1	112.5	157.5	-1.1248962209342	-0.764070440554369	0.2	0	0	0	243.434867602773	243.534873186145	0.100005583371967	0.200024575926363
55314.25	100	80	0	80	1	1	90	1	2	0	2	67.5	22.5	-2.35092104458821	-1.19482135386782	0.2	0	0	0	243.734879232477	243.834862629184	0.0999833967071027	0.200006046332419
55389.25	100	81	0	81	1	1	90	1	2	0	2	67.5	112.5	0.885579544004734	-0.912038749272381	0.2	0	0	0	244.034889399307	244.134867676068	0.0999782767612487	0.200026770122349
55464.25	100	82	0	82	1	1	90	1	2	0	1	22.5	67.5	2.1531676602818	3.12627343967254	0.2	0	0	0	244.334903467214	244.434876380023	0.0999729128088802	0.200035791145638
55539.25	100	83	0	83	1	1	90	1	2	0	1	22.5	67.5	0.681743315708695	-1.06590346209893	0.2	0	0	0	244.634888765402	244.734872405883	0.0999836404807866	0.200012385379523
55614.25	100	84	0	84	1	1	90	1	2	0	2	157.5	112.5	1.78653079046415	0.0155250296125664	0.2	0	0	0	244.934893324738	245.034882328939	0.0999890042003244	0.200020918855444
55689.25	100	85	0	85	1	1	90	1	2	0	2	67.5	22.5	-0.550260628906408	-0.25183996301937	0.2	0	0	0	245.234904466895	245.334907368058	0.100002901162952	0.200022137956694
55764.25	100	86	0	86	1	1	90	1	2	0	1	22.5	67.5	0.740181479588277	-2.05453433957096	0.2	0	0	0	245.534919753671	245.634900468402	0.0999807147309184	0.200012385612354
55839.25	100	87	0	87	1	1	90	1	2	0	1	22.5	157.5	-1.48786594267445	-0.62982457846174	0.2	0	0	0	245.834926507203	245.93490649038	0.099979983177036	0.200026038801298
55914.25	100	88	0	88	1	1	90	1	2	0	2	67.5	22.5	-0.584948998565177	-1.8537913483686	0.2	0	0	0	246.134930578759	246.234913000138	0.0999824213795364	0.200024088378996
55989.25	100	89	0	89	1	1	90	1	2	0	1	112.5	157.5	-0.755933472199521	-1.11629555129088	0.2	0	0	0	246.434938551392	246.53492560517	0.0999870537780225	0.20002555125393
56064.25	100	90	0	90	1	1	90	1	2	0	2	67.5	22.5	-0.724763980302767	-0.834810170553116	0.2	0	0	0	246.734959933441	246.834968442563	0.100008509121835	0.200034328270704
56139.25	100	91	0	91	1	1	90	1	2	0	1	112.5	67.5	-0.631135918314894	-0.943131214481892	0.2	0	0	0	247.03499374981	247.134951546555	0.0999577967450023	0.200025307247415
56214.25	100	92	0	92	1	1	90	1	2	0	1	22.5	67.5	1.93008452153162	2.75166745846347	0.2	0	0	0	247.335003185319	247.434977804776	0.0999746194574982	0.200051638763398
56289.25	100	93	0	93	1	1	90	1	2	0	1	22.5	67.5	-2.07453988876657	-1.27631254016289	0.2	1	0	0	247.634983851342	247.734946524026	0.0999626726843417	0.20000604656525
56364.25	100	94	0	94	1	1	90	1	2	0	1	22.5	157.5	-1.8529766132254	-1.05318403082658	0.2	0	0	0	247.934991823742	248.03497887752	0.0999870537780225	0.200045299716294
56439.25	100	95	0	95	1	1	90	1	2	0	2	67.5	22.5	-1.54143618779138	0.989914702708565	0.2	0	0	0	248.235001259251	248.334981730208	0.0999804709572345	0.200022381730378
56514.25	100	96	0	96	1	1	90	1	2	0	1	112.5	67.5	2.95963533675273	-0.645591785300985	0.2	0	0	0	248.53499947954	248.634981169365	0.099981689825654	0.200017749331892
56589.25	100	97	0	97	1	1	90	1	2	0	1	112.5	67.5	0.142949140187037	0.0988796080346734	0.2	0	0	0	248.835025493987	248.935014741961	0.0999892479740083	0.200044324621558
56664.25	100	98	0	98	1	1	90	1	2	0	1	22.5	157.5	-2.80906328161886	0.927034031478906	0.2	0	0	0	249.135022738948	249.235008817399	0.0999860784504563	0.200007996987551
56739.25	100	99	0	99	1	1	90	1	2	0	2	157.5	22.5	2.10735145327759	-2.6787043618291	0.2	0	0	0	249.435034612427	249.535013376502	0.0999787640757859	0.200025795027614
56814.25	100	100	0	100	1	1	90	1	2	0	2	67.5	22.5	2.34698315005767	1.07797950999513	0.2	0	0	0	249.735059163999	249.835019398713	0.099960234714672	0.200045787496492
56889.25	100	101	0	101	1	1	90	1	2	0	2	157.5	112.5	2.01783711399089	-2.50595166475888	0.2	0	0	0	250.035069574602	250.135024689371	0.099955114768818	0.200050175888464
56964.25	100	102	0	102	1	1	90	1	2	3	2	157.5	22.5	-0.887222084414915	-1.56937220934394	0.2	0	0	0	250.3350517035	250.435033880873	0.0999821773730218	0.200027014128864
57039.25	100	103	0	103	1	1	90	1	2	3	2	67.5	22.5	1.47434110141317	1.94636721184218	0.2	0	0	0	250.635058944579	250.735088908812	0.100029964232817	0.200025063706562
57114.25	100	104	0	104	1	1	90	1	2	3	1	22.5	67.5	-1.22211021124457	3.07593282167285	0.2	0	0	0	250.935069599189	251.035050069913	0.0999804707244039	0.199980690376833
57189.25	100	105	0	105	1	1	90	1	2	1	-1	90	135	-2.27906149738188	1.09157256023274	0.2	0	0	0	251.235066112597	251.335050484398	0.0999843718018383	0.200016042683274
57264.25	100	106	0	106	1	1	90	1	2	3	1	22.5	157.5	2.2951225669418	-2.06341394013953	0.2	0	0	0	251.535114557482	251.635070891352	0.0999563338700682	0.200064073083922
57339.25	100	107	0	107	1	1	90	1	2	3	1	112.5	67.5	2.09253357803941	-0.387910951829664	0.2	0	0	0	251.835083520506	251.935062772362	0.0999792518559843	0.200012629153207
57414.25	100	108	0	108	1	1	90	1	2	3	2	157.5	112.5	-1.81453679458182	-1.36569469398963	0.2	0	0	0	252.135093931342	252.235080741113	0.099986809771508	0.200031158979982
57489.25	100	109	0	109	1	1	90	1	2	3	2	67.5	112.5	2.38641050648714	2.14363041887168	0.2	0	0	0	252.435101903975	252.535088713747	0.099986809771508	0.200021162861958
57564.25	100	110	0	110	1	1	90	1	2	0	1	112.5	157.5	-2.98707893916735	-1.67626826425187	0.2	0	0	0	252.735136207892	252.835098149255	0.09996194136329	0.20004749414511
57639.25	100	111	0	111	1	1	90	1	2	0	1	22.5	67.5	-1.20376918494561	-1.90851930875734	0.2	0	0	0	253.035149544245	253.135131965624	0.0999824213795364	0.200051394989714
57714.25	100	112	0	112	1	1	90	1	2	0	2	67.5	112.5	-3.06019042337495	0.86759895081598	0.2	0	0	0	253.335124846315	253.435109461891	0.0999846155755222	0.199992880690843
57789.25	100	113	0	113	1	1	90	1	2	0	2	157.5	112.5	-2.06689969228659	0.861949188820033	0.2	0	0	0	253.6351311123	253.735117678298	0.0999865659978241	0.200021650409326
57864.25	100	114	0	114	1	1	90	1	2	0	1	22.5	157.5	-2.11580792263062	0.563903948357181	0.2	0	0	0	253.935140791582	254.035124188056	0.099983396474272	0.20002311328426
57939.25	100	115	0	115	1	1	90	1	2	0	2	67.5	112.5	1.35609574534775	-0.132930579499117	0.2	0	0	0	254.23514973931	254.335136305308	0.0999865659978241	0.20002555125393
58014.25	100	116	0	116	1	1	90	1	2	0	2	157.5	112.5	-1.27807807908293	2.88441827045841	0.2	0	0	0	254.535160881467	254.635168171255	0.100007289787754	0.200024576159194
58089.25	100	117	0	117	1	1	90	1	2	0	1	112.5	157.5	-1.94745466476245	-0.261082091408046	0.2	0	0	0	254.835171779618	254.935177606763	0.100005827145651	0.200003608362749
58164.25	100	118	0	118	1	1	90	1	2	0	2	67.5	22.5	-1.98510569177727	2.74588026416544	0.2	0	0	0	255.13519974472	255.235164367827	0.0999646231066436	0.200022137956694
58239.25	100	119	0	119	1	1	90	1	2	0	2	157.5	112.5	-1.1814775667791	-0.680215362730859	0.2	0	0	0	255.435192357283	255.535170146264	0.0999777889810503	0.20002798945643
58314.25	100	120	0	120	1	1	90	1	2	0	2	157.5	112.5	2.27558428766496	-0.217672829321746	0.2	0	0	0	255.735193259316	255.835210545454	0.100017286138609	0.200023113051429
58389.25	100	121	0	121	1	1	90	1	2	0	2	67.5	22.5	0.671444611867756	-0.883380564869292	0.2	0	0	0	256.035195380449	256.135183653329	0.0999882728792727	0.199984834995121
58464.25	100	122	0	122	1	1	90	1	2	0	2	157.5	112.5	-2.49864271541839	1.35163700952622	0.2	0	0	0	256.335210179677	256.435192113509	0.0999819338321686	0.200026526348665
58539.25	100	123	0	123	1	1	90	1	2	0	2	67.5	22.5	1.16235051184185	1.58019566657532	0.2	0	0	0	256.635216445662	256.735195453512	0.0999790078494698	0.20002433215268
58614.25	100	124	0	124	1	1	90	1	2	0	2	67.5	112.5	0.22774161878943	-1.63871773645571	0.2	0	0	0	256.935217591468	257.035212690942	0.0999950994737446	0.200022137956694
58689.25	100	125	0	125	1	1	90	1	2	0	1	22.5	157.5	-0.323883504282814	0.163433967599302	0.2	0	0	0	257.235235072672	257.335235048318	0.0999999756459147	0.200022381730378
58764.25	100	126	0	126	1	1	90	1	2	0	1	112.5	67.5	0.173229724255443	1.42313398628685	0.2	0	0	0	257.535239632009	257.635219858959	0.09998022695072	0.200004583690315
58839.25	100	127	0	127	1	1	90	1	2	0	2	157.5	112.5	0.951878340372305	0.00982222669183441	0.2	0	0	0	257.835282713175	257.935263671447	0.0999809582717717	0.200062854215503
58914.25	100	128	0	128	1	1	90	1	2	0	1	22.5	67.5	1.88940487575103	1.02030613874126	0.2	0	0	0	258.135258259019	258.235239705071	0.0999814460519701	0.199994587572291
58989.25	100	129	0	129	1	1	90	1	2	0	1	22.5	67.5	0.0331832648237573	0.730028181658433	0.2	0	0	0	258.43526379345	258.535253772978	0.0999899795278907	0.200024088378996
59064.25	100	130	0	130	1	1	90	1	2	0	2	157.5	22.5	0.85168109936294	1.34669573742105	0.2	0	0	0	258.735280786874	258.835258575855	0.0999777889810503	0.200027013896033
59139.25	100	131	0	131	1	1	90	1	2	0	2	67.5	22.5	-0.205516847667267	-0.909321396860224	0.2	0	0	0	259.035285589984	259.135268255137	0.0999826651532203	0.200027014128864
59214.25	100	132	0	132	1	1	90	1	2	3	2	157.5	22.5	0.842363109223612	-1.21534898466719	0.2	0	0	0	259.335296000587	259.435266962973	0.0999709623865783	0.200027745449916
59289.25	100	133	0	133	1	1	90	1	2	3	1	112.5	157.5	-0.700706355080902	-2.98666803386159	0.2	0	0	0	259.635302510345	259.735262988834	0.0999604784883559	0.200035547371954
59364.25	100	134	0	134	1	1	90	1	2	3	2	157.5	112.5	-0.534896362492453	2.4525607975294	0.2	0	0	0	259.935330962995	260.035319723422	0.0999887604266405	0.200067974161357
59439.25	100	135	0	135	1	1	90	1	2	3	2	67.5	22.5	0.104661233473545	1.82134828352038	0.2	0	0	0	260.235315042315	260.335296488367	0.0999814460519701	0.199995318893343
64168.5	100	136	1	0	1	1	0	1	2	3	2	157.5	22.5	1.01856011175774	-2.16034405525999	0.2	0	0	0	279.152493404225	279.252476800932	0.0999833967071027	-1
64243.5	100	137	1	1	1	1	0	1	2	3	2	67.5	112.5	-3.13491869020503	-2.81515443669599	0.2	0	0	0	279.452520393999	279.552483554464	0.0999631604645401	0.200043593067676
64318.5	100	138	1	2	1	1	0	1	2	3	1	112.5	157.5	-2.14503487699978	-2.69774898842907	0.2	0	0	0	279.752507642843	279.852488113567	0.0999804707244039	0.200024088378996
64393.5	100	139	1	3	1	1	0	1	2	3	1	22.5	157.5	3.11697290337565	2.01321075451216	0.2	0	0	0	280.052516590571	280.152497305302	0.0999807147309184	0.200028477003798
64468.5	100	140	1	4	1	1	0	1	2	0	1	22.5	67.5	0.292075998535797	1.76561913960184	0.2	0	0	0	280.352522125002	280.452502352186	0.0999802271835506	0.200024819700047
64543.5	100	141	1	5	1	1	0	1	2	0	1	112.5	157.5	0.0856612160106947	1.25896767279634	0.2	0	0	0	280.65253156051	280.752536899876	0.100005339365453	0.20002920832485
64618.5	100	142	1	6	1	1	0	1	2	0	1	112.5	157.5	-2.42262090593965	1.39981240961598	0.2	0	0	0	280.9525719597	281.052545604063	0.0999736443627626	0.200035059824586
64693.5	100	143	1	7	1	1	0	1	2	0	2	157.5	22.5	1.80046283196627	-2.26210451141713	0.2	0	0	0	281.252565060044	281.352542361245	0.0999773012008518	0.20001945598051
64768.5	100	144	1	8	1	1	0	1	2	0	1	22.5	67.5	2.05067504531529	0.50218703169364	0.2	0	0	0	281.552568400046	281.652547895676	0.0999794956296682	0.200026038801298
64843.5	100	145	1	9	1	1	0	1	2	0	1	22.5	67.5	-1.19170434275648	-3.08367646825379	0.2	0	0	0	281.852574909804	281.952557818731	0.0999829089269042	0.200027014128864
64918.5	100	146	1	10	1	1	0	1	2	0	1	112.5	157.5	-1.43761999540042	-2.94174246573801	0.2	0	0	0	282.152584345313	282.252565060044	0.0999807147309184	0.200026526581496
64993.5	100	147	1	11	1	1	0	1	2	0	2	67.5	22.5	-2.68291261911495	0.751935904528124	0.2	0	0	0	282.452596218791	282.552577664843	0.0999814460519701	0.200031158747151
65068.5	100	148	1	12	1	1	0	1	2	0	2	157.5	22.5	-1.21812332598895	-3.09532769599228	0.2	0	0	0	282.752606873401	282.85256271949	0.0999558460898697	0.20002920855768
65143.75	100	149	1	13	1	1	0	1	2	0	2	67.5	22.5	0.0797946762201787	-0.547226725953116	0.2	0	0	0	283.052617527777	283.152591171907	0.0999736441299319	0.20005480828695
65218.5	100	150	1	14	1	1	0	1	2	0	1	112.5	67.5	-0.334336085578692	-0.925530642584891	0.2	0	0	0	283.352611115668	283.452596462565	0.0999853468965739	0.200019943760708
65293.75	100	151	1	15	1	1	0	1	2	0	1	22.5	157.5	-3.08751288692562	2.3225885265164	0.2	0	0	0	283.652630059514	283.752628572285	0.0999985127709806	0.200033596949652
65368.75	100	152	1	16	1	1	0	1	2	0	1	112.5	67.5	-2.52640944828846	-0.93576099662017	0.2	0	0	0	283.952658024617	284.052641908638	0.0999838840216398	0.200029452331364
65443.75	100	153	1	17	1	1	0	1	2	0	2	157.5	112.5	-1.66042167999002	-1.85123658453845	0.2	0	0	0	284.252647467656	284.352625500411	0.0999780327547342	0.200005559017882
65518.75	100	154	1	18	1	1	0	1	2	0	2	157.5	112.5	2.07819535747196	1.13108763836097	0.2	0	0	0	284.55265251454	284.652635911014	0.099983396474272	0.200027014128864
65593.75	100	155	1	19	1	1	0	1	2	0	2	157.5	112.5	2.91939944913437	-2.17238086566726	0.2	0	0	0	284.852657805197	284.952636325499	0.099978520302102	0.20002189418301
65668.75	100	156	1	20	1	1	0	1	2	0	1	112.5	157.5	2.2738540569295	3.01202643873576	0.2	0	0	0	285.152662120527	285.25267136097	0.100009240442887	0.200025795027614
65743.75	100	157	1	21	1	1	0	1	2	0	2	157.5	112.5	-0.0417409086858762	2.65388843628008	0.2	0	0	0	285.452705201693	285.552656902932	0.0999517012387514	0.200033840723336
65818.75	100	158	1	22	1	1	0	1	2	0	1	22.5	157.5	-0.864524609956257	3.08706092406332	0.2	0	0	0	285.752685867716	285.852665363345	0.0999794956296682	0.200028964783996
65893.75	100	159	1	23	1	1	0	1	2	3	1	112.5	157.5	2.48451715467503	0.744187330553973	0.2	0	0	0	286.052690914599	286.152656269027	0.0999653544276953	0.20002555125393
65968.75	100	160	1	24	1	1	0	1	2	3	1	22.5	157.5	1.60619197147482	-2.00443280680764	0.2	0	0	0	286.352690841304	286.452668142738	0.0999773014336824	0.200034572277218
66043.75	100	161	1	25	1	1	0	1	2	3	2	157.5	22.5	0.91926305468392	-1.87863318463316	0.2	0	0	0	286.652723682579	286.752707810607	0.0999841280281544	0.200055539840832
66118.75	100	162	1	26	1	1	0	1	2	2	-1	45	0	1.25963139789239	1.35010256667227	0.2	0	0	0	286.95271751401	287.052686282201	0.0999687681905925	0.200009703403339
66193.75	100	163	1	27	1	1	0	1	2	3	1	112.5	67.5	2.7502989936348	-0.38258742077017	0.2	0	0	0	287.252712321002	287.352692304179	0.099979983177036	0.200026038801298
66268.75	100	164	1	28	1	1	0	1	2	3	1	22.5	67.5	0.163796669415297	1.28755832179269	0.2	0	0	0	287.552723950706	287.652701739687	0.0999777889810503	0.20003164652735
66343.75	100	165	1	29	1	1	0	1	2	3	2	67.5	22.5	-1.53646552032864	-1.82729448632475	0.2	0	0	0	287.852726803161	287.952729948331	0.100003145169467	0.200025063473731
66418.75	100	166	1	30	1	1	0	1	2	3	2	67.5	112.5	1.46971857090733	0.433718952384754	0.2	0	0	0	288.152731606271	288.252717440948	0.0999858346767724	0.200001657940447
66493.75	100	167	1	31	1	1	0	1	2	0	1	112.5	67.5	2.70532506224722	2.22955950849948	0.2	0	0	0	288.452740798006	288.55272712023	0.0999863222241402	0.200023357057944
66568.75	100	168	1	32	1	1	0	1	2	0	1	22.5	67.5	-1.7190346366238	-1.33932420558568	0.2	0	0	0	288.752755841007	288.852760692826	0.100004851818085	0.200028720777482
66643.75	100	169	1	33	1	1	0	1	2	0	1	22.5	157.5	-0.724946981760074	2.0987568779693	0.2	0	0	0	289.05277502886	289.152756231138	0.0999812022782862	0.200014336034656
66718.75	100	170	1	34	1	1	0	1	2	0	2	67.5	112.5	1.6494181865676	-2.23794252438557	0.2	0	0	0	289.352780075744	289.452765666414	0.0999855906702578	0.200023844605312
66793.75	100	171	1	35	1	1	0	1	2	0	2	67.5	112.5	1.88824515513129	1.03988182888279	0.2	0	0	0	289.652776589151	289.752790705767	0.100014116615057	0.20001092273742
66868.75	100	172	1	36	1	1	0	1	2	0	1	112.5	67.5	-2.81640840991925	-2.87981797122752	0.2	0	0	0	289.95278602466	290.052764544962	0.099978520302102	0.199995318893343
66943.75	100	173	1	37	1	1	0	1	2	0	2	67.5	112.5	1.92735679865817	-1.60951706121597	0.2	0	0	0	290.252791802865	290.352778369095	0.0999865662306547	0.200027257902548
67018.75	100	174	1	38	1	1	0	1	2	0	2	157.5	112.5	-1.61526245917974	-2.6894639390968	0.2	0	0	0	290.55280172592	290.652782928199	0.0999812022782862	0.200023356825113
67093.75	100	175	1	39	1	1	0	1	2	0	1	22.5	157.5	-2.34549118775075	-1.90327973819385	0.2	0	0	0	290.852840418462	290.952816500794	0.0999760823324323	0.200057490263134
67168.75	100	176	1	40	1	1	0	1	2	0	1	22.5	157.5	-2.83630149525236	0.187067306942981	0.2	0	0	0	291.152834006352	291.252813989529	0.099979983177036	0.200017505558208
67243.75	100	177	1	41	1	1	0	1	2	0	1	112.5	157.5	-0.24258078586598	1.95947569928461	0.2	0	0	0	291.452858801698	291.552818548866	0.0999597471673042	0.200044812168926
67318.75	100	178	1	42	1	1	0	1	2	0	1	112.5	67.5	-0.294219905307985	1.96871488900553	0.2	0	0	0	291.75284410012	291.852826521499	0.0999824213795364	0.20002555125393
67393.75	100	179	1	43	1	1	0	1	2	0	2	67.5	112.5	-1.97243557571938	2.59898632836731	0.2	0	0	0	292.052851584973	292.15283205593	0.0999804709572345	0.200025063473731
67468.75	100	180	1	44	1	1	0	1	2	0	1	112.5	67.5	1.33703049618565	-1.58856737463376	0.2	0	0	0	292.352858094731	292.452840028331	0.0999819335993379	0.200026038801298
67543.75	100	181	1	45	1	1	0	1	2	0	2	157.5	22.5	-1.97534814927486	2.74837283020205	0.2	0	0	0	292.652858996764	292.752842881018	0.0999838842544705	0.200018968433142
67618.75	100	182	1	46	1	1	0	1	2	0	2	157.5	22.5	2.69238795820089	-0.465114029584653	0.2	0	0	0	292.952893300913	293.052874503192	0.0999812022782862	0.200050419894978
67693.75	100	183	1	47	1	1	0	1	2	0	2	67.5	22.5	3.13243068328947	1.0450156248601	0.2	0	0	0	293.252878599102	293.352857850958	0.0999792518559843	0.200004095910117
67768.75	100	184	1	48	1	1	0	1	2	0	2	67.5	112.5	-1.04942687274083	1.39709384351265	0.2	0	0	0	293.552878769813	293.652861434966	0.0999826651532203	0.200020918855444
67843.75	100	185	1	49	1	1	0	1	2	0	1	22.5	157.5	-3.00021729683961	-1.43171192950376	0.2	0	0	0	293.852894788142	293.952900858829	0.100006070686504	0.200033353175968
67918.75	100	186	1	50	1	1	0	1	2	0	1	22.5	67.5	-2.70215931552284	-1.37677688818034	0.2	0	0	0	294.1529000788	294.252875917125	0.0999758383259177	0.199999219970778
67993.75	100	187	1	51	1	1	0	1	2	0	2	157.5	112.5	0.219114941863973	-0.401972191607786	0.2	0	0	0	294.452907076105	294.552888522157	0.0999814460519701	0.200031158979982
68068.75	100	188	1	52	1	1	0	1	2	0	1	22.5	157.5	-0.914571256888672	-0.996605603499745	0.2	0	0	0	294.752913098084	294.852894544369	0.0999814462848008	0.200024575926363
68143.75	100	189	1	53	1	1	0	1	2	0	2	157.5	22.5	1.75125690940217	1.43723804616234	0.2	0	0	0	295.05293838121	295.152926410083	0.0999880288727582	0.20004383684136
68218.75	100	190	1	54	1	1	0	1	2	0	2	157.5	22.5	-0.572372114380328	2.30071537979737	0.2	0	0	0	295.352931725327	295.452916340902	0.0999846155755222	0.200005315244198
68293.75	100	191	1	55	1	1	0	1	2	0	1	112.5	67.5	-1.52550550858495	1.01275620861962	0.2	0	0	0	295.652934577782	295.752923581982	0.0999890042003244	0.200018236879259
68368.75	100	192	1	56	1	1	0	1	2	0	1	22.5	157.5	-2.12946752488399	-2.83392394805089	0.2	0	0	0	295.952944988385	296.052925703116	0.0999807147309184	0.200021406402811
68443.75	100	193	1	57	1	1	0	1	2	0	1	112.5	67.5	3.09042746368823	1.86956518200601	0.2	0	0	0	296.252959543839	296.352934163297	0.0999746194574982	0.200033840723336
68518.75	100	194	1	58	1	1	0	1	2	0	1	22.5	157.5	1.66017854455137	1.68439172091638	0.2	0	0	0	296.552977268817	296.652973343618	0.0999960748013109	0.200043105520308
68593.75	100	195	1	59	1	1	0	1	2	0	2	67.5	22.5	1.13469366086619	3.03986370676397	0.2	0	0	0	296.852971100481	296.95294986479	0.0999787643086165	0.199997756863013
68668.75	100	196	1	60	1	1	0	1	2	0	2	67.5	22.5	-1.75271521170112	-1.95928474479419	0.2	0	0	0	297.152977854013	297.252995871473	0.100018017459661	0.200027989223599
68743.75	100	197	1	61	1	1	0	1	2	0	1	112.5	157.5	-0.356916394989071	2.72146534544718	0.2	0	0	0	297.452986801742	297.55296800402	0.0999812022782862	0.199990930268541
68818.75	100	198	1	62	1	1	0	1	2	0	2	157.5	22.5	1.60841331801512	-0.650940745458946	0.2	0	0	0	297.753025006736	297.852973782457	0.0999487757217139	0.200057002715766
68893.75	100	199	1	63	1	1	0	1	2	0	2	67.5	22.5	0.922070849895511	0.346473677708261	0.2	0	0	0	298.053008598508	298.152982242638	0.0999736441299319	0.200034816050902
68968.75	100	200	1	64	1	1	0	1	2	0	2	67.5	22.5	-1.395141197556	-1.86915916777108	0.2	0	0	0	298.353009744314	298.452994847437	0.09998510312289	0.200027501676232
69043.75	100	201	1	65	1	1	0	1	2	0	2	157.5	112.5	-0.94059464265242	-1.561288667703	0.2	0	0	0	298.65301674162	298.753003795398	0.0999870537780225	0.20002189418301
69118.75	100	202	1	66	1	1	0	1	2	0	2	67.5	22.5	1.95486057018139	-0.49112807874326	0.2	0	0	0	298.953042512294	299.053009817377	0.0999673050828278	0.200038716895506
69193.75	100	203	1	67	1	1	0	1	2	0	1	22.5	157.5	-2.80113680867603	0.398954398727609	0.2	0	0	0	299.253076816443	299.353033150081	0.0999563336372375	0.200066999066621
69268.75	100	204	1	68	1	1	0	1	2	0	2	67.5	112.5	0.923503945670506	-1.53485364553998	0.2	0	0	0	299.553055044031	299.653047217755	0.0999921737238765	0.200021893950179
69343.75	100	205	1	69	1	1	0	1	2	3	1	112.5	67.5	1.29493078365904	0.334668102943541	0.2	0	0	0	299.853049363475	299.953037636122	0.0999882726464421	0.200002145720646
69418.75	100	206	1	70	1	1	0	1	2	3	2	67.5	22.5	0.103220536121428	-0.464431363326113	0.2	0	0	0	300.15305757965	300.253045852529	0.0999882728792727	0.200019943527877
69493.75	100	207	1	71	1	1	0	1	2	3	1	112.5	157.5	0.332002489916384	-1.76502445481237	0.2	0	0	0	300.453085057205	300.553046998335	0.0999619411304593	0.200039204675704
69568.75	100	208	1	72	1	1	0	1	2	1	-1	0	45	2.66632600792583	0.923426076366538	0.2	0	0	0	300.753105951473	300.853084715782	0.0999787643086165	0.200058953138068
69643.75	100	209	1	73	1	1	0	1	2	3	2	157.5	22.5	-1.10394429581939	-1.13612111707021	0.2	0	0	0	301.053110023262	301.153072695946	0.0999626726843417	0.200025307480246
69718.75	100	210	1	74	1	1	0	1	2	3	1	22.5	67.5	1.58283372241189	-2.9133799825836	0.2	1	0.492154328618199	1	301.353094346356	301.453076279955	0.0999819335993379	0.200021650409326
69793.75	100	211	1	75	1	1	0	1	2	3	1	22.5	157.5	1.40016682868404	-1.62490946966281	0.2	0	0	0	301.653099880787	301.753113753395	0.100013872608542	0.200023600831628
69868.75	100	212	1	76	1	1	0	1	2	3	2	157.5	112.5	1.50019133566882	-0.495239147800007	0.2	0	0	0	301.953107609414	302.053091249894	0.0999836404807866	0.199993856018409
69943.75	100	213	1	77	1	1	0	1	2	0	2	157.5	22.5	-2.71927598613749	0.736443658437758	0.2	0	0	0	302.25314825261	302.353114094818	0.0999658422078937	0.200057002715766
70018.75	100	214	1	78	1	1	0	1	2	0	1	112.5	157.5	1.21399467140315	-2.71128596615076	0.2	0	0	0	302.553135013673	302.653135476867	0.100000463193282	0.200020918855444
70093.75	100	215	1	79	1	1	0	1	2	0	2	67.5	112.5	-0.781827145256115	2.44356700305105	0.2	0	0	0	302.85313079576	302.953117605764	0.0999868100043386	0.199995318893343
70168.75	100	216	1	80	1	1	0	1	2	0	2	67.5	22.5	-2.32679376482248	-2.64575109873694	0.2	0	0	0	303.153141694143	303.253152153455	0.100010459311306	0.200024088378996
70243.75	100	217	1	81	1	1	0	1	2	0	2	157.5	112.5	2.56255896977432	2.80518254965961	0.2	0	0	0	303.453177460935	303.553131356603	0.0999538956675678	0.200025307480246
70318.75	100	218	1	82	1	1	0	1	2	0	1	112.5	67.5	-1.47340014037884	-2.96284159455031	0.2	0	0	0	303.753163490677	303.853140791878	0.0999773012008518	0.200032134074718
70393.75	100	219	1	83	1	1	0	1	2	0	2	67.5	22.5	-0.215734300132459	-1.20727942892223	0.2	0	0	0	304.053163417615	304.153144375887	0.0999809582717717	0.200022625736892
70468.75	100	220	1	84	1	1	0	1	2	0	1	22.5	157.5	-1.21042178165768	-1.03217809232762	0.2	0	0	0	304.353185530985	304.453182337107	0.0999968061223626	0.200041155098006
70543.75	100	221	1	85	1	1	0	1	2	0	1	22.5	157.5	-2.43758443117874	1.09282020132381	0.2	0	0	0	304.653186677024	304.753170073498	0.099983396474272	0.200004339916632
70618.75	100	222	1	86	1	1	0	1	2	0	1	112.5	67.5	-1.31244387868711	-2.58040314008108	0.2	0	0	0	304.953217567643	305.053174145054	0.0999565774109215	0.20004749414511
70693.75	100	223	1	87	1	1	0	1	2	0	1	22.5	67.5	0.708114127777989	-1.83842178316859	0.2	0	0	0	305.253200915409	305.353181386366	0.0999804709572345	0.20002677035518
70768.75	100	224	1	88	1	1	0	1	2	0	2	67.5	112.5	0.872286102157561	2.03302953103133	0.2	0	0	0	305.553202792769	305.653186189244	0.099983396474272	0.200021406402811
70843.75	100	225	1	89	1	1	0	1	2	0	1	22.5	67.5	1.55544605332482	2.62873574444811	0.2	0	0	0	305.853213203372	305.953199038049	0.0999858346767724	0.200027014128864
70918.75	100	226	1	90	1	1	0	1	2	0	1	22.5	67.5	-2.1850979568109	-2.78924012753932	0.2	0	0	0	306.153249701718	306.253203353612	0.0999536518938839	0.200050663668662
70993.75	100	227	1	91	1	1	0	1	2	0	2	157.5	112.5	-1.42105553817836	-2.52246777780103	0.2	0	0	0	306.453230611514	306.553250335623	0.100019724108279	0.200027257902548
71068.75	100	228	1	92	1	1	0	1	2	0	2	157.5	22.5	2.07824905094104	-1.00334330062173	0.2	0	0	0	306.753247848712	306.853218323551	0.0999704748392105	0.199997513089329
71143.75	100	229	1	93	1	1	0	1	2	0	2	157.5	22.5	0.154502269074086	-0.869797195165096	0.2	0	0	0	307.053245093673	307.15323921782	0.0999941241461784	0.200026770122349
71218.75	100	230	1	94	1	1	0	1	2	0	1	112.5	157.5	1.50102540659603	1.11964558444317	0.2	0	0	0	307.353264769074	307.453249872429	0.0999851033557206	0.20002555125393
71293.75	100	231	1	95	1	1	0	1	2	3	2	67.5	112.5	-0.241448669228638	2.77766317600552	0.2	0	0	0	307.653271035058	307.753281006822	0.100009971763939	0.200021162629128
71368.75	100	232	1	96	1	1	0	1	2	3	1	22.5	67.5	-0.50232027653904	0.846373017264849	0.2	0	0	0	307.953288516263	308.053264598595	0.0999760823324323	0.200007509440184
71443.75	100	233	1	97	1	1	0	1	2	3	2	67.5	22.5	-2.93398891406753	-1.05483620898713	0.2	0	0	0	308.253301365068	308.353274277644	0.0999729125760496	0.200036766473204
71518.75	100	234	1	98	1	1	0	1	2	2	-1	135	0	2.14470793704051	-1.75185252656114	0.2	0	0	0	308.553300560452	308.653285176028	0.0999846155755222	0.200026282807812
71593.75	100	235	1	99	1	1	0	1	2	3	2	157.5	22.5	2.54420915287424	-2.74242084062026	0.2	0	0	0	308.853307557758	308.953300462803	0.0999929050449282	0.200022381730378
71668.75	100	236	1	100	1	1	0	1	2	3	1	112.5	67.5	1.35229870866315	-2.7159854238901	0.2	0	0	0	309.153312604642	309.253330865875	0.100018261233345	0.20001214183867
71743.75	100	237	1	101	1	1	0	1	2	3	2	157.5	112.5	-1.7835002496337	2.27941566078198	0.2	0	0	0	309.453348371433	309.55329568428	0.0999473128467798	0.200017505558208
71818.75	100	238	1	102	1	1	0	1	2	3	1	112.5	157.5	0.815706193507632	2.29349126781178	0.2	0	0	0	309.753355368739	309.853333401494	0.0999780327547342	0.20005968445912
71893.75	100	239	1	103	1	1	0	1	2	0	2	67.5	112.5	1.13164306122303	-0.819769745864889	0.2	0	0	0	310.053336766083	310.153317968361	0.0999812022782862	0.200003364589065
71968.75	100	240	1	104	1	1	0	1	2	0	1	112.5	157.5	-1.37121509335126	-1.75467255205267	0.2	0	0	0	310.353346689139	310.453338619089	0.0999919299501926	0.200028720777482
72043.75	100	241	1	105	1	1	0	1	2	0	1	112.5	67.5	-0.775392465400372	2.27973762411031	0.2	0	0	0	310.653380993288	310.753348785918	0.0999677926301956	0.200042374199256
72118.75	100	242	1	106	1	1	0	1	2	0	2	157.5	22.5	2.44749672684695	-1.69476195758175	0.2	0	0	0	310.953366047703	311.053345299559	0.0999792518559843	0.200017261784524
72193.75	100	243	1	107	1	1	0	1	2	0	2	67.5	112.5	-1.49044758356947	-0.595789349554359	0.2	0	0	0	311.253375726985	311.353361317888	0.0999855909030885	0.2000304274261
72268.75	100	244	1	108	1	1	0	1	2	0	1	112.5	67.5	0.697524375311674	2.43785513198612	0.2	0	0	0	311.553385650041	311.653364414116	0.0999787640757859	0.20002433215268
72343.75	100	245	1	109	1	1	0	1	2	0	2	67.5	112.5	-2.84626810618487	-2.98716682234682	0.2	0	0	0	311.853385332972	311.953373849625	0.0999885166529566	0.200020918855444
72418.75	100	246	1	110	1	1	0	1	2	0	2	157.5	112.5	-2.9985927352095	-0.920549331338914	0.2	0	0	0	312.153418905567	312.253403764917	0.0999848593492061	0.20004505594261
72493.75	100	247	1	111	1	1	0	1	2	0	2	67.5	112.5	-2.87050688594175	-1.88997076526356	0.2	0	0	0	312.453420782927	312.55339393951	0.0999731565825641	0.20001701801084
72568.75	100	248	1	112	1	1	0	1	2	0	1	22.5	67.5	-1.22676224957955	-0.328606989357236	0.2	0	0	0	312.753439239226	312.853415077785	0.0999758385587484	0.200045299716294
72643.75	100	249	1	113	1	1	0	1	2	0	2	67.5	112.5	2.69770609152627	2.73365262768721	0.2	0	0	0	313.053424781421	313.153405008372	0.09998022695072	0.200009703636169
72718.75	100	250	1	114	1	1	0	1	2	0	2	67.5	22.5	0.48831572943208	2.88015185919847	0.2	0	0	0	313.353429584531	313.453421514481	0.0999919299501926	0.200024576159194
72793.75	100	251	1	115	1	1	0	1	2	0	1	22.5	67.5	-0.100326356178551	1.59205959818377	0.2	0	0	0	313.653437069384	313.753418027889	0.0999809585046023	0.200015554903075
72868.75	100	252	1	116	1	1	0	1	2	0	2	157.5	112.5	-2.21568160924042	2.18250524569306	0.2	0	0	0	313.953449430643	314.05343233957	0.0999829089269042	0.200031402753666
72943.75	100	253	1	117	1	1	0	1	2	0	1	112.5	157.5	0.361020042311942	-0.774928082787502	0.2	0	0	0	314.253480077488	314.353432266274	0.0999521887861192	0.200047737918794
73018.75	100	254	1	118	1	1	0	1	2	0	1	22.5	67.5	-2.32716772540322	1.50179036122664	0.2	0	0	0	314.553458305309	314.653431217885	0.0999729125760496	0.200026039034128
73093.75	100	255	1	119	1	1	0	1	2	0	1	112.5	157.5	-2.72181664301396	1.44534644870819	0.2	0	0	0	314.853459207341	314.953443822917	0.0999846155755222	0.20002798945643
73168.75	100	256	1	120	1	1	0	1	2	0	2	157.5	22.5	-1.04517195026822	2.54014041149054	0.2	0	0	0	315.153471080819	315.253481052583	0.100009971763939	0.200027257902548
73243.75	100	257	1	121	1	1	0	1	2	0	2	67.5	22.5	-1.52377395780158	-0.851011175719528	0.2	0	0	0	315.453505628742	315.553460499505	0.0999548707623035	0.200024576159194
73318.75	100	258	1	122	1	1	0	1	2	0	2	67.5	22.5	1.77471094964495	2.19225657355988	0.2	0	0	0	315.753486538306	315.853467984591	0.0999814462848008	0.200026038801298
73393.75	100	259	1	123	1	1	0	1	2	0	1	22.5	67.5	0.402644670561653	-1.94859258492291	0.2	0	0	0	316.053491097642	316.153473031241	0.0999819335993379	0.200023113051429
73468.75	100	260	1	124	1	1	0	1	2	0	2	157.5	112.5	0.882435772034033	0.528667772559784	0.2	0	0	0	316.353498094948	316.453480272554	0.0999821776058525	0.200025063706562
73543.75	100	261	1	125	1	1	0	1	2	0	1	112.5	157.5	-1.39211603323707	2.81416891016421	0.2	0	0	0	316.653505336028	316.75352335372	0.100018017692491	0.200025063473731
73618.75	100	262	1	126	1	1	0	1	2	0	1	22.5	157.5	-0.676299753740274	1.53291437644797	0.2	0	0	0	316.953524767654	317.05350401951	0.0999792518559843	0.200001413933933
73693.75	100	263	1	127	1	1	0	1	2	0	2	157.5	22.5	-2.42577696465125	1.61573851993086	0.2	0	0	0	317.253536641365	317.353518818738	0.0999821773730218	0.200032621854916
73768.75	100	264	1	128	1	1	0	1	2	0	1	112.5	67.5	-1.3363613305762	-2.0081562523118	0.2	0	0	0	317.553529741475	317.653511187527	0.0999814460519701	0.20001092273742
73843.75	100	265	1	129	1	1	0	1	2	0	1	22.5	67.5	3.09764427383563	-0.802248140071927	0.2	0	0	0	317.853541127406	317.95352159813	0.0999804707244039	0.200029939878732
73918.75	100	266	1	130	1	1	0	1	2	0	1	112.5	157.5	1.06574674191814	0.384360716015923	0.2	0	0	0	318.153551538009	318.253530058311	0.099978520302102	0.200029939878732
73993.75	100	267	1	131	1	1	0	1	2	0	2	157.5	112.5	-1.02654747133586	1.9167374395729	0.2	0	0	0	318.45355707244	318.553537299624	0.0999802271835506	0.200027014128864
74068.75	100	268	1	132	1	1	0	1	2	3	1	112.5	67.5	0.812411834603489	-1.6469356773317	0.2	0	0	0	318.753553586081	318.853573310189	0.100019724108279	0.200016286456957
74143.75	100	269	1	133	1	1	0	1	2	3	2	67.5	22.5	2.58164474261789	0.251269925165799	0.2	0	0	0	319.053601299645	319.153583720792	0.0999824211467057	0.20002798945643
74218.75	100	270	1	134	1	1	0	1	2	3	1	22.5	67.5	1.95711894394905	1.54042208146028	0.2	0	0	0	319.353602689225	319.45358364773	0.0999809585046023	0.200018968433142
74293.75	100	271	1	135	1	1	0	1	2	3	2	157.5	112.5	0.157874302750798	1.18513383381319	0.2	0	0	0	319.653620414203	319.753575041192	0.0999546269886196	0.200036766473204
76002.25	100	272	2	0	2	1	0	1	2	3	1	22.5	67.5	0.172280401933866	1.14284128148144	0.166666666666667	0	0	0	326.487140383804	326.587116466137	0.0999760823324323	-1
76060.5	100	273	2	1	2	1	0	1	2	3	1	112.5	157.5	-0.0679561223619247	-2.47937761654791	0.133333333333333	0	0	0	326.720495440532	326.820456894347	0.0999614538159221	0.133378974394873
76123	100	274	2	2	2	1	0	1	2	3	2	67.5	112.5	-2.14322292467601	-2.45371449827134	0.15	0	0	0	326.970485627186	327.070437084883	0.0999514576978981	0.150028732838109
76177.25	100	275	2	3	2	1	0	1	2	3	2	157.5	22.5	-0.62975620305732	1.49099853870303	0.116666666666667	0	0	0	327.187127778772	327.287114345003	0.0999865662306547	0.116690693888813
76231.5	100	276	2	4	2	1	0	1	2	0	1	22.5	157.5	-1.42583014206092	-0.290800686843998	0.116666666666667	0	0	0	327.403804551577	327.503814035561	0.10000948398374	0.116690206574276
76314.75	100	277	2	5	2	1	0	1	2	0	2	157.5	112.5	-2.77573011907514	1.99173853940284	0.233333333333333	0	0	0	327.737174943788	327.837152732769	0.0999777889810503	0.233360908227041
76410.5	100	278	2	6	2	1	0	1	2	0	1	112.5	157.5	-0.0901526902527827	-2.05994117554701	0.283333333333333	0	0	0	328.120483884122	328.220496293856	0.100012409733608	0.283331151353195
76506.5	100	279	2	7	2	1	0	1	2	0	2	157.5	112.5	-1.86088002476499	2.31082108447074	0.283333333333333	0	0	0	328.503829883179	328.603809622815	0.0999797396361828	0.283333589322865
76560.5	100	280	2	8	2	1	0	1	2	0	1	112.5	157.5	-1.03969580517092	1.40865596619267	0.116666666666667	0	0	0	328.720499341609	328.820485420059	0.0999860784504563	0.116689718794078
76635.5	100	281	2	9	2	1	0	1	2	0	1	22.5	157.5	-0.412651664371794	0.783501496548146	0.2	0	0	0	329.020511702634	329.12049388024	0.0999821776058525	0.200026282574981
76706.5	100	282	2	10	2	1	0	1	2	0	2	157.5	22.5	-0.598321011959948	2.71525895513291	0.183333333333333	0	0	0	329.303854556754	329.403834783938	0.0999802271835506	0.183360676513985
76764.75	100	283	2	11	2	1	0	1	2	0	1	22.5	67.5	-1.7904134281804	-2.09007531608804	0.133333333333333	0	0	0	329.53721717163	329.637182770064	0.0999655984342098	0.133382387692109
76823	100	284	2	12	2	1	0	1	2	0	1	112.5	157.5	1.55674759765917	0.535588251327058	0.133333333333333	0	0	0	329.770563938888	329.870523686055	0.0999597471673042	0.133381168823689
76885.5	100	285	2	13	2	1	0	1	2	0	1	22.5	67.5	2.85977917777188	3.0733499164693	0.15	0	0	0	330.020551687572	330.120514116483	0.0999624289106578	0.150028001517057
76939.75	100	286	2	14	2	1	0	1	2	0	1	112.5	67.5	0.690855939626823	-2.24653862989602	0.116666666666667	0	0	0	330.237208711449	330.337188207079	0.0999794956296682	0.116694594966248
76998	100	287	2	15	2	1	0	1	2	0	1	22.5	157.5	2.65852721638551	-1.56978358253626	0.133333333333333	0	0	0	330.470556454035	330.570531073492	0.0999746194574982	0.133368246955797
77089.75	100	288	2	16	2	1	0	1	2	0	2	67.5	22.5	2.4723990075848	1.50413549874079	0.266666666666667	0	0	0	330.837236115709	330.937221218832	0.09998510312289	0.266705042216927
77152.25	100	289	2	17	2	1	0	1	2	0	1	112.5	157.5	-2.96535937133955	-1.54129857095748	0.15	0	0	0	331.087244100403	331.187227740884	0.0999836404807866	0.150022881571203
77235.5	100	290	2	18	2	1	0	1	2	0	2	67.5	112.5	1.34379649446612	1.5256591785144	0.233333333333333	0	0	0	331.420598401455	331.52057058271	0.0999721812549978	0.233370660571381
77331.5	100	291	2	19	2	1	0	1	2	0	2	157.5	22.5	3.05042279112286	-3.13345584150389	0.283333333333333	0	0	0	331.803930991096	331.903908780077	0.0999777889810503	0.283360408386216
77385.5	100	292	2	20	2	1	0	1	2	0	2	157.5	112.5	-1.4383091969201	-2.44977210107236	0.116666666666667	0	0	0	332.020605813246	332.120585065102	0.0999792518559843	0.116697033168748
77473	100	293	2	21	2	1	0	1	2	0	1	22.5	157.5	1.44348745856195	0.732972880039378	0.25	0	0	0	332.370632546954	332.470600827364	0.0999682804103941	0.250047481851652
77539.75	100	294	2	22	2	1	0	1	2	0	1	22.5	157.5	0.416605526829311	-1.26903664812083	0.166666666666667	0	0	0	332.63730784459	332.737264909549	0.0999570649582893	0.166707017226145
77639.75	100	295	2	23	2	1	0	1	2	0	1	22.5	157.5	2.98563473499267	1.5619196686326	0.3	0	0	0	333.037287998479	333.13726822543	0.09998022695072	0.300023088930175
77698	100	296	2	24	2	1	0	1	2	0	2	157.5	112.5	0.0547806410544869	1.01964727963391	0.133333333333333	0	0	0	333.270628426457	333.370609384961	0.0999809585046023	0.133360201027244
77764.75	100	297	2	25	2	1	0	1	2	0	1	112.5	67.5	2.36163318323125	0.38290599120663	0.166666666666667	0	0	0	333.537299335469	333.637291265419	0.0999919299501926	0.166689950507134
77823	100	298	2	26	2	1	0	1	2	0	2	67.5	22.5	-0.265291509741215	-2.87271587121515	0.133333333333333	0	0	0	333.770664876094	333.870647785021	0.0999829089269042	0.133373610675335
77914.75	100	299	2	27	2	1	0	1	2	0	2	157.5	22.5	-2.79119203293084	-0.563760198269246	0.266666666666667	0	0	0	334.137312354986	334.237294044811	0.099981689825654	0.266664569964632
78010.5	100	300	2	28	2	1	0	1	2	0	1	112.5	67.5	0.136418199316745	-2.46519544071827	0.283333333333333	0	0	0	334.520654453197	334.620642238297	0.0999877850990742	0.283360408386216
78069	100	301	2	29	2	1	0	1	2	0	2	157.5	22.5	-0.698654806147943	-0.402342128561099	0.133333333333333	0	0	0	334.754000489134	334.853980472311	0.099979983177036	0.133358250837773
78148	100	302	2	30	2	1	0	1	2	0	2	67.5	22.5	-2.73393382202326	-1.21888468858037	0.216666666666667	0	0	0	335.07066943543	335.170651612803	0.0999821773730218	0.216688963118941
78198	100	303	2	31	2	1	0	1	2	0	2	67.5	22.5	-1.22369651093161	-1.83212228299982	0.1	0	0	0	335.270680601941	335.370672044111	0.0999914421699941	0.100028989138082
78264.75	100	304	2	32	2	1	0	1	2	0	2	157.5	112.5	-1.94611086413139	-1.40293077163674	0.166666666666667	0	0	0	335.537389057456	335.637341977796	0.0999529203400016	0.166717013344169
78339.75	100	305	2	33	2	1	0	1	2	0	2	67.5	22.5	2.52496952774213	2.7979770165084	0.2	0	0	0	335.837360702455	335.937345561804	0.0999848593492061	0.200018724659458
78402.25	100	306	2	34	2	1	0	1	2	0	1	112.5	67.5	2.46393812140121	-1.57037984632355	0.15	0	0	0	336.087364786305	336.18734940188	0.0999846155755222	0.150019224500284
78481.5	100	307	2	35	2	1	0	1	2	0	2	67.5	112.5	0.242333102252382	2.07685234152859	0.216666666666667	0	0	0	336.404041778296	336.504055163357	0.100013385061175	0.216692376416177
78573	100	308	2	36	2	1	0	1	2	0	1	22.5	157.5	2.55407907965294	-2.45979145225051	0.266666666666667	0	0	0	336.77072729147	336.87070044782	0.0999731563497335	0.266672128112987
78656.5	100	309	2	37	2	1	0	1	2	0	1	112.5	157.5	-0.62547643425758	0.906816286876253	0.233333333333333	0	0	0	337.104058674304	337.204040851677	0.0999821773730218	0.233358226483688
78719	100	310	2	38	2	1	0	1	2	0	2	67.5	22.5	0.984405870122728	-0.543734439074789	0.15	0	0	0	337.354079093318	337.454065171769	0.0999860784504563	0.150038241641596
78785.5	100	311	2	39	2	1	0	1	2	0	2	157.5	22.5	1.14533302832723	-0.610620614700416	0.166666666666667	0	0	0	337.62075536605	337.720737543656	0.0999821776058525	0.166690194280818
78848	100	312	2	40	2	1	0	1	2	0	2	67.5	112.5	2.96720362583178	-2.09196602601422	0.15	0	0	0	337.870759206126	337.970745772123	0.0999865659978241	0.150021662469953
78919	100	313	2	41	2	1	0	1	2	3	2	67.5	112.5	1.24812824746833	1.19041861256436	0.183333333333333	0	0	0	338.154103766894	338.254072778625	0.0999690117314458	0.183357994770631
79014.75	100	314	2	42	2	1	0	1	2	3	1	22.5	67.5	-1.37690257302252	-1.32021346893913	0.283333333333333	0	0	0	338.537436356535	338.637414876837	0.099978520302102	0.283363577909768
79064.75	100	315	2	43	2	1	0	1	2	3	1	112.5	67.5	0.189988855171836	-0.616154255221691	0.1	0	0	0	338.737472147681	338.83742141095	0.0999492632690817	0.100057270843536
79131.5	100	316	2	44	2	1	0	1	2	2	-1	135	0	1.8724324310862	-1.0608065122056	0.166666666666667	0	0	0	339.004116725177	339.104097927455	0.0999812022782862	0.166695314226672
79194	100	317	2	45	2	1	0	1	2	3	2	157.5	112.5	1.79228509215291	0.10019037169843	0.15	0	0	0	339.254141532816	339.354126879945	0.0999853471294045	0.150043605361134
79294	100	318	2	46	2	1	0	1	2	3	2	157.5	22.5	-1.58671890663749	-1.81960065390246	0.3	0	0	0	339.654141922947	339.754130927147	0.0999890042003244	0.300015043001622
79373.25	100	319	2	47	2	1	0	1	2	3	1	112.5	157.5	2.82456233422158	-2.03246542576652	0.216666666666667	0	0	0	339.970820865594	340.070798410568	0.0999775449745357	0.216689938446507
79460.5	100	320	2	48	2	1	0	1	2	3	2	67.5	22.5	0.200740718194207	1.93034487847611	0.25	0	0	0	340.320812490536	340.420798812993	0.0999863224569708	0.250014079967514
79531.5	100	321	2	49	2	1	0	1	2	0	2	67.5	22.5	1.98077816145123	0.810653527784501	0.183333333333333	0	0	0	340.604159977054	340.704170436598	0.100010459544137	0.183361164061353
79631.5	100	322	2	50	2	1	0	1	2	0	1	112.5	67.5	2.8278079238055	1.76106147500327	0.3	0	0	0	341.004170851083	341.104152297135	0.0999814460519701	0.300000414485112
79731.5	100	323	2	51	2	1	0	1	2	0	2	67.5	22.5	2.07895241929022	1.44884371259753	0.3	0	0	0	341.404188795481	341.504194866167	0.100006070686504	0.300036498345435
79827.25	100	324	2	52	2	1	0	1	2	0	1	22.5	67.5	-2.10443866862264	-1.31705705958223	0.283333333333333	0	0	0	341.787532600341	341.887518191244	0.0999855909030885	0.283337734173983
79919	100	325	2	53	2	1	0	1	2	0	1	112.5	157.5	-0.30931774106992	2.82970590936618	0.266666666666667	0	0	0	342.154209824046	342.254198096693	0.0999882726464421	0.266691632801667
80006.5	100	326	2	54	2	1	0	1	2	0	2	67.5	22.5	-2.48418437421197	0.332096564499236	0.25	0	0	0	342.50422387966	342.604199230438	0.0999753507785499	0.250025782966986
80056.5	100	327	2	55	2	1	0	1	2	0	1	22.5	157.5	-1.78184099018111	-3.13181086543468	0.1	0	0	0	342.704225293826	342.804204057902	0.0999787640757859	0.100026063388214
80127.25	100	328	2	56	2	1	0	1	2	0	1	22.5	67.5	-2.48958148312744	0.730173975049402	0.183333333333333	0	0	0	342.98756546597	343.087546668248	0.0999812022782862	0.183361408067867
80181.5	100	329	2	57	2	1	0	1	2	0	2	67.5	112.5	-1.60096844061505	1.62181368820111	0.116666666666667	0	0	0	343.204238093691	343.304244408384	0.100006314693019	0.116691425442696
80281.5	100	330	2	58	2	1	0	1	2	0	2	157.5	112.5	-2.5228333644172	-2.86677715852117	0.3	0	0	0	343.604251161916	343.704239190789	0.0999880288727582	0.300006753532216
80352.25	100	331	2	59	2	1	0	1	2	0	1	22.5	157.5	1.39465119489076	1.15048760821142	0.183333333333333	0	0	0	343.887589871185	343.987577168737	0.0999872975517064	0.183350680395961
80423.25	100	332	2	60	2	1	0	1	2	0	2	157.5	112.5	2.89998346568248	-0.763265367644887	0.183333333333333	0	0	0	344.170952961547	344.270907588536	0.0999546269886196	0.183375792810693
80485.75	100	333	2	61	2	1	0	1	2	0	2	157.5	22.5	1.37950782509614	-1.998208208301	0.15	0	0	0	344.42092949478	344.520912159933	0.0999826651532203	0.150021906243637
80585.75	100	334	2	62	2	1	0	1	2	0	1	22.5	67.5	2.19790994112746	-0.0417784250112248	0.3	0	0	0	344.820964262122	344.920916938689	0.0999526765663177	0.300052102189511
80660.75	100	335	2	63	2	1	0	1	2	3	2	67.5	22.5	0.833026744331	1.48199197383893	0.2	0	0	0	345.120947853662	345.220963920699	0.100016067037359	0.200030914973468
80719	100	336	2	64	2	1	0	1	2	3	1	22.5	67.5	-0.0433214598115494	2.0018419607169	0.133333333333333	0	0	0	345.354288281873	345.45426582708	0.0999775452073663	0.133324361173436
80810.75	100	337	2	65	2	1	0	1	2	3	2	157.5	22.5	-0.352360975566949	2.70981937513799	0.266666666666667	0	0	0	345.720964042703	345.820945488755	0.0999814460519701	0.266698215622455
80910.75	100	338	2	66	2	1	0	1	2	1	-1	0	135	-2.940714129711	-0.28083170303238	0.3	0	0	0	346.121001735562	346.220969284652	0.0999675490893424	0.300056246807799
80973.25	100	339	2	67	2	1	0	1	2	3	2	67.5	112.5	1.58451202347325	-2.39927136140748	0.15	0	0	0	346.370985095622	346.47099872469	0.100013629067689	0.150015810970217
81039.75	100	340	2	68	2	1	0	1	2	3	2	157.5	112.5	-2.2920353584189	1.34433711312286	0.166666666666667	0	0	0	346.637680873275	346.737664757296	0.0999838840216398	0.166682148585096
81127.25	100	341	2	69	2	1	0	1	2	3	1	22.5	157.5	2.44853135138062	-0.625602424232999	0.25	1	0.758851812686771	1	346.987662989646	347.087646630127	0.0999836404807866	0.249998232349753
81198.25	100	342	2	70	2	1	0	1	2	3	1	112.5	67.5	-1.49498366876266	0.790261150321682	0.183333333333333	0	0	0	347.271033881931	347.37099557952	0.099961697589606	0.183387251803651
81277.25	100	343	2	71	2	1	0	1	2	0	2	157.5	112.5	-0.200449957828458	0.38039279615884	0.216666666666667	0	0	0	347.587692344328	347.687676960137	0.0999846158083528	0.216696764808148
81377.25	100	344	2	72	2	1	0	1	2	0	2	67.5	112.5	0.787840185739919	-0.144173618472884	0.3	0	0	0	347.98769980506	348.087682957761	0.0999831527005881	0.30002284492366
81444	100	345	2	73	2	1	0	1	2	0	1	22.5	67.5	-0.321276645575139	0.817367472646958	0.166666666666667	0	0	0	348.254385098815	348.354356792523	0.09997169370763	0.166702141053975
81506.5	100	346	2	74	2	1	0	1	2	0	1	22.5	157.5	-0.396159055203716	1.3000216115711	0.15	0	0	0	348.504383331165	348.604364777217	0.0999814460519701	0.150026538642123
81589.75	100	347	2	75	2	1	0	1	2	0	1	22.5	157.5	3.12520254328358	2.78218121302679	0.233333333333333	0	0	0	348.837714226451	348.937698842026	0.0999846155755222	0.233349449234083
81648.25	100	348	2	76	2	1	0	1	2	0	2	67.5	112.5	1.93820089311396	0.422782947272497	0.133333333333333	0	0	0	349.071057092631	349.171036588261	0.0999794956296682	0.133358250604942
81735.75	100	349	2	77	2	1	0	1	2	0	2	157.5	112.5	-2.13176354516575	-0.781078605177165	0.25	0	0	0	349.421060176799	349.521041135304	0.0999809585046023	0.25002358853817
81823.25	100	350	2	78	2	1	0	1	2	0	1	112.5	67.5	1.0219749355145	0.596788695597763	0.25	0	0	0	349.771072038217	349.871052265167	0.09998022695072	0.25003090291284
81902.25	100	351	2	79	2	1	0	1	2	0	1	22.5	157.5	1.50309965730599	3.01528736619082	0.216666666666667	0	0	0	350.087751468178	350.187736083986	0.0999846158083528	0.216699203010648
81956.5	100	352	2	80	2	1	0	1	2	0	2	157.5	22.5	-1.3028597447771	-1.0135190280649	0.116666666666667	0	0	0	350.304421170382	350.404400422238	0.0999792518559843	0.116685086395591
82010.75	100	353	2	81	2	1	0	1	2	0	1	22.5	67.5	-2.43565435418966	-3.05754690888711	0.116666666666667	0	0	0	350.521121104946	350.621101575671	0.0999804707244039	0.116720682708547
82094	100	354	2	82	2	1	0	1	2	0	2	157.5	22.5	0.261853800496744	-2.70470819708374	0.233333333333333	0	0	0	350.854436640162	350.954419305315	0.0999826651532203	0.233335064491257
82173.25	100	355	2	83	2	1	0	1	2	0	1	112.5	157.5	-0.715495086235039	2.02376903471769	0.216666666666667	0	0	0	351.171121434076	351.271089226706	0.0999677926301956	0.216702128760517
82244	100	356	2	84	2	1	0	1	2	0	1	112.5	67.5	-0.429185565524517	2.90735566985091	0.183333333333333	0	0	0	351.454466482392	351.554445734248	0.0999792518559843	0.183377255685627
82327.25	100	357	2	85	2	1	0	1	2	0	1	112.5	67.5	0.989531582354699	-0.281027972711034	0.233333333333333	0	0	0	351.787804448046	351.887785162777	0.0999807147309184	0.233358713798225
82414.75	100	358	2	86	2	1	0	1	2	0	2	157.5	22.5	-2.58176081881637	-2.29443908931495	0.25	0	0	0	352.137820454082	352.237795805093	0.0999753510113806	0.250035291304812
82481.5	100	359	2	87	2	1	0	1	2	0	1	112.5	157.5	0.524947444078493	-1.43247531673801	0.166666666666667	0	0	0	352.404476490803	352.504457449308	0.0999809585046023	0.166680685710162
82569	100	360	2	88	2	1	0	1	2	0	1	112.5	157.5	2.16264601064189	-0.0642848479422868	0.25	0	0	0	352.75447835587	352.854494422907	0.100016067037359	0.250020906561986
82660.75	100	361	2	89	2	1	0	1	2	0	2	67.5	112.5	1.87983545438901	1.59736373739256	0.266666666666667	0	0	0	353.121154604247	353.221147509525	0.0999929052777588	0.26666018133983
82710.75	100	362	2	90	2	1	0	1	2	0	2	157.5	22.5	1.33871164230569	0.6814857369774	0.1	0	0	0	353.321166746086	353.421159894904	0.0999931488186121	0.100019236560911
82785.75	100	363	2	91	2	1	0	1	2	0	2	157.5	112.5	-2.04454632170367	2.11781226081427	0.2	0	0	0	353.621187640587	353.721174694132	0.0999870535451919	0.200027745682746
82881.5	100	364	2	92	2	1	0	1	2	0	1	22.5	157.5	-1.16699328552222	3.05676565592599	0.283333333333333	0	0	0	354.004550462589	354.104516061023	0.0999655984342098	0.283375768456608
82973.25	100	365	2	93	2	1	0	1	2	0	1	22.5	67.5	-1.08010914630661	-1.12934286749484	0.266666666666667	0	0	0	354.371210375801	354.471178656211	0.0999682804103941	0.266694314777851
83027.25	100	366	2	94	2	1	0	1	2	0	2	67.5	22.5	3.04304179279007	-0.89635639261248	0.116666666666667	0	0	0	354.587867887458	354.687852746807	0.0999848593492061	0.11668923124671
83102.5	100	367	2	95	2	1	0	1	2	0	2	157.5	22.5	2.21612382708171	-2.71043608004516	0.2	0	0	0	354.887878541835	354.987858037464	0.0999794956296682	0.200025795027614
83169	100	368	2	96	2	1	0	1	2	0	2	67.5	22.5	0.362727409166567	2.97338044483912	0.166666666666667	0	0	0	355.154549450846	355.254553083563	0.100003632716835	0.166691413382068
83248.25	100	369	2	97	2	1	0	1	2	3	1	112.5	157.5	-1.6989199162535	2.68116336113019	0.216666666666667	0	0	0	355.471263258019	355.571240559453	0.0999773014336824	0.216710174456239
83298.25	100	370	2	98	2	1	0	1	2	3	1	22.5	67.5	1.26440186614736	-0.703635466016091	0.1	0	0	0	355.671241997741	355.771225150675	0.0999831529334188	0.100001438288018
83369	100	371	2	99	2	1	0	1	2	3	2	157.5	112.5	2.68044984850797	2.77082988425427	0.183333333333333	0	0	0	355.954573636642	356.054552157177	0.0999785205349326	0.183348485967144
83456.5	100	372	2	100	2	1	0	1	2	2	-1	45	0	2.92269325284262	1.85656835710749	0.25	0	0	0	356.304579646559	356.404561336618	0.0999816900584847	0.250027489382774
83515	100	373	2	101	2	1	0	1	2	3	2	157.5	22.5	2.54971733675454	1.67477943976027	0.133333333333333	0	0	0	356.537921293871	356.637903227471	0.0999819335993379	0.13335995725356
83590	100	374	2	102	2	1	0	1	2	3	2	67.5	112.5	-1.58547098829012	1.53100102151006	0.2	0	0	0	356.837926340755	356.9379133943	0.0999870535451919	0.20002311328426
83656.5	100	375	2	103	2	1	0	1	2	3	1	22.5	157.5	3.02844980749842	1.20780420973071	0.166666666666667	0	0	0	357.10459993151	357.204619411845	0.100019480334595	0.166686537209898
83719	100	376	2	104	2	1	0	1	2	3	1	112.5	67.5	1.27700720532324	0.329663442976061	0.15	0	0	0	357.35461059818	357.454593994888	0.0999833967071027	0.149991186335683
83819	100	377	2	105	2	1	0	1	2	0	1	112.5	157.5	1.8859645607762	-1.53483803448024	0.3	0	0	0	357.754673891235	357.854606087785	0.0999321965500712	0.300079896347597
83902.5	100	378	2	106	2	1	0	1	2	0	2	67.5	22.5	-2.20874971248108	-0.533521950516481	0.233333333333333	0	0	0	358.08796163206	358.187942346791	0.0999807147309184	0.233355544274673
83952.5	100	379	2	107	2	1	0	1	2	0	1	112.5	157.5	2.72614623265828	-1.0882113282129	0.1	0	0	0	358.287975480547	358.387952781748	0.0999773012008518	0.100033133756369
84031.5	100	380	2	108	2	1	0	1	2	0	1	22.5	67.5	2.51695612259517	0.774664400939864	0.216666666666667	0	0	0	358.604645402171	358.704631480621	0.0999860784504563	0.216692620422691
84119	100	381	2	109	2	1	0	1	2	0	1	22.5	67.5	1.13101147594074	-1.58139167702478	0.25	0	0	0	358.954656288261	359.054651387502	0.099995099240914	0.25002480763942
84215	100	382	2	110	2	1	0	1	2	0	2	67.5	112.5	1.13516248652965	2.24927980129496	0.283333333333333	0	0	0	359.337995460723	359.437990560196	0.0999950994737446	0.283344073221087
84310.75	100	383	2	111	2	1	0	1	2	0	2	67.5	22.5	0.416633975061032	-0.792833236582575	0.283333333333333	0	0	0	359.721356332302	359.821340947878	0.0999846155755222	0.283365772105753
84360.75	100	384	2	112	2	1	0	1	2	0	1	112.5	67.5	-0.994148263198969	-2.45435767808265	0.1	0	0	0	359.921355552273	360.021343093598	0.0999875413253903	0.100014604395255
84435.75	100	385	2	113	2	1	0	1	2	0	1	112.5	157.5	1.96023735541123	-0.197343880168105	0.2	0	0	0	360.221365231322	360.321346921381	0.0999816900584847	0.200022137723863
84485.75	100	386	2	114	2	1	0	1	2	0	1	22.5	67.5	1.41011944709052	3.03604459148153	0.1	0	0	0	360.42137030256	360.521355649689	0.0999853471294045	0.100023381179199
84556.5	100	387	2	115	2	1	0	1	2	0	2	67.5	112.5	1.26552614201575	0.849007819504286	0.183333333333333	0	0	0	360.704717057757	360.804694358958	0.0999773012008518	0.183361408067867
84606.5	100	388	2	116	2	1	0	1	2	0	2	157.5	112.5	0.547852581891731	-1.01563710960601	0.1	0	0	0	360.904717984144	361.004747948376	0.100029964232817	0.100023625185713
84656.5	100	389	2	117	2	1	0	1	2	0	2	67.5	112.5	1.96511001748286	-2.71203480257072	0.1	0	0	0	361.10474304785	361.204729126301	0.0999860784504563	0.0999950994737446
84715	100	390	2	118	2	1	0	1	2	0	1	112.5	67.5	-0.351249914426593	-2.78011089186507	0.133333333333333	0	0	0	361.338067140663	361.438039322151	0.0999721814878285	0.13333801436238
84802.5	100	391	2	119	2	1	0	1	2	0	2	67.5	112.5	1.70366237009079	-2.43697890321578	0.25	0	0	0	361.688056571642	361.788055084413	0.0999985127709806	0.250017249491066
84865	100	392	2	120	2	1	0	1	2	0	2	157.5	112.5	1.30020281487571	2.30623391218074	0.15	0	0	0	361.938058461063	362.038089400623	0.100030939560384	0.150003376649693
84944	100	393	2	121	2	1	0	1	2	0	2	157.5	22.5	2.61432217821511	0.595408970694272	0.216666666666667	0	0	0	362.254756420851	362.354733234504	0.099976813653484	0.21666702022776
85035.75	100	394	2	122	2	1	0	1	2	0	2	157.5	112.5	-0.521126562124528	0.736099998710259	0.266666666666667	0	0	0	362.621440227143	362.721400949406	0.0999607222620398	0.266706992639229
85110.75	100	395	2	123	2	1	0	1	2	0	1	22.5	67.5	2.83818915820924	-2.98065401148748	0.2	0	0	0	362.921434790362	363.021423550555	0.0999887601938099	0.200033840956166
85210.75	100	396	2	124	2	1	0	1	2	0	2	157.5	22.5	-1.77437689316554	-0.547426606347305	0.3	0	0	0	363.321481016697	363.421439300757	0.0999582840595394	0.30005746614188
85285.75	100	397	2	125	2	1	0	1	2	0	2	67.5	112.5	0.113115466606001	-1.55404063715675	0.2	0	0	0	363.62145826919	363.72143727704	0.0999790078494698	0.200018968433142
85377.5	100	398	2	126	2	1	0	1	2	0	1	112.5	67.5	0.0309472497938423	1.79353796872762	0.266666666666667	0	0	0	363.988134273794	364.088115476072	0.0999812022782862	0.266696996754035
85460.75	100	399	2	127	2	1	0	1	2	0	1	22.5	67.5	2.82087096763495	-0.653049356215617	0.233333333333333	0	0	0	364.32147126412	364.421457098797	0.0999858346767724	0.233355788048357
85540	100	400	2	128	2	1	0	1	2	0	1	112.5	67.5	1.03571336014481	-1.64114130916829	0.216666666666667	0	0	0	364.638175562955	364.738163104281	0.0999875413253903	0.216718464158475
85610.75	100	401	2	129	2	1	0	1	2	0	1	112.5	157.5	-1.12039569017232	3.07133743437245	0.183333333333333	0	0	0	364.921493304661	365.021478407783	0.09998510312289	0.183330200379714
85685.75	100	402	2	130	2	1	0	1	2	0	1	112.5	67.5	-2.09201667980866	-2.89978402413607	0.2	0	0	0	365.22150639724	365.321486624191	0.09998022695072	0.20002798945643
85752.5	100	403	2	131	2	1	0	1	2	0	2	67.5	112.5	-0.0783290736504045	-2.54304764862741	0.166666666666667	0	0	0	365.488171942299	365.588156801648	0.0999848593492061	0.166685318108648
85848.25	100	404	2	132	2	1	0	1	2	3	1	22.5	157.5	-0.775124919515751	1.12436138500997	0.283333333333333	0	0	0	365.871520379558	365.971503044711	0.0999826651532203	0.283363577909768
85940	100	405	2	133	2	1	0	1	2	3	1	112.5	67.5	-1.04516934763246	2.46986632298352	0.266666666666667	0	0	0	366.238220033702	366.33817807422	0.0999580405186862	0.266716988990083
86010.75	100	406	2	134	2	1	0	1	2	3	2	67.5	22.5	-0.739819569256023	-1.09766612217817	0.183333333333333	0	0	0	366.521538994508	366.621540433029	0.100001438520849	0.183360920287669
86094	100	407	2	135	2	1	0	1	2	3	2	157.5	112.5	0.763465728495922	-1.21246973363158	0.233333333333333	0	0	0	366.854876716388	366.954868402565	0.0999916861765087	0.233336283359677
87156.75	100	408	3	0	1	2	90	1	1	3	2	157.5	112.5	1.8513866769905	3.02034049151184	0.2	0	0	0	371.104985150741	371.204970010091	0.0999848593492061	-1
87231.75	100	409	3	1	1	2	90	1	1	3	2	157.5	22.5	2.63169041518498	-1.03401396320787	0.2	0	0	0	371.405009702314	371.504975300748	0.0999655984342098	0.200039692223072
87306.75	100	410	3	2	1	2	90	1	1	3	2	67.5	112.5	0.241921533098479	3.03556095511283	0.2	0	0	0	371.70500841015	371.804980835412	0.0999724252615124	0.200033109402284
87381.75	100	411	3	3	1	2	90	1	1	3	2	67.5	22.5	1.98826381990754	-0.734075491099321	0.2	0	0	0	372.005038325675	372.104992952663	0.0999546269886196	0.200057490263134
87456.75	100	412	3	4	1	2	90	1	1	0	1	22.5	157.5	1.8882641898779	-2.20092416497629	0.2	0	0	0	372.305018991465	372.404996780446	0.0999777889810503	0.200026038801298
87531.75	100	413	3	5	1	2	90	1	1	0	2	67.5	22.5	-1.3716064259443	2.84482213107201	0.2	0	0	0	372.605021600379	372.705037423642	0.100015823263675	0.200024819932878
87606.75	100	414	3	6	1	2	90	1	1	0	1	22.5	67.5	1.52086098576362	-1.55954368845523	0.2	0	0	0	372.905034692958	373.005043445621	0.100008752662688	0.199997269315645
87681.75	100	415	3	7	1	2	90	1	1	0	1	112.5	67.5	1.61496722635101	-2.62966581755495	0.2	0	0	0	373.205039739609	373.305024111643	0.0999843720346689	0.199996293988079
87756.75	100	416	3	8	1	2	90	1	1	0	1	22.5	157.5	-0.750162286563913	0.307297595896532	0.2	0	0	0	373.50505161332	373.60503184027	0.09998022695072	0.200027501676232
87831.75	100	417	3	9	1	2	90	1	1	0	1	22.5	157.5	-0.470283876467997	-3.02608446327874	0.2	0	0	0	373.80506836297	373.905045176623	0.099976813653484	0.20003652269952
87906.75	100	418	3	10	1	2	90	1	1	0	2	67.5	112.5	-0.216261964194888	-2.12357748643915	0.2	0	0	0	374.105069265002	374.205055099679	0.0999858346767724	0.200024088378996
87981.75	100	419	3	11	1	2	90	1	1	0	2	67.5	22.5	-0.0654756072567371	-1.27012344595976	0.2	0	0	0	374.405084795784	374.505062340992	0.0999775452073663	0.200029696105048
88056.75	100	420	3	12	1	2	90	1	1	0	2	157.5	22.5	0.27805621457299	-2.64656492249844	0.2	0	0	0	374.705079846317	374.805070313392	0.0999904670752585	0.200017505325377
88131.75	100	421	3	13	1	2	90	1	1	0	1	22.5	157.5	3.03620480135181	0.613543817237882	0.2	0	0	0	375.00512317149	375.105083893752	0.0999607222620398	0.200052858097479
88206.75	100	422	3	14	1	2	90	1	1	0	2	157.5	22.5	1.52029871903456	1.92968766586709	0.2	0	0	0	375.305102618178	375.405084308237	0.0999816900584847	0.200018724426627
88281.75	100	423	3	15	1	2	90	1	1	0	1	112.5	67.5	1.87420134838972	0.970195630605566	0.2	0	0	0	375.605115954531	375.705103983637	0.0999880291055888	0.200031646294519
88356.75	100	424	3	16	1	2	90	1	1	0	1	112.5	157.5	0.481910787549621	1.43281526208662	0.2	0	0	0	375.905122951837	376.005113418913	0.0999904670752585	0.200018968200311
88431.75	100	425	3	17	1	2	90	1	1	0	2	157.5	112.5	2.90693621984744	-0.687137010716943	0.2	0	0	0	376.205136532197	376.305117734475	0.0999812022782862	0.20002311328426
88506.75	100	426	3	18	1	2	90	1	1	0	1	22.5	67.5	-1.63178849072351	-0.187949746535573	0.2	0	0	0	376.505162790418	376.605143017368	0.09998022695072	0.20004505594261
88581.75	100	427	3	19	1	2	90	1	1	0	2	157.5	22.5	-1.97207104143286	-1.96413975924633	0.2	0	0	0	376.805152477231	376.905133679509	0.0999812022782862	0.200009459862486
88656.75	100	428	3	20	1	2	90	1	1	0	2	157.5	112.5	2.38472098411351	1.63310579199985	0.2	0	0	0	377.105157524114	377.205131899798	0.0999743756838143	0.200023844605312
88731.75	100	429	3	21	1	2	90	1	1	0	1	112.5	67.5	1.56315375525319	-2.22532084206972	0.2	0	0	0	377.405154769076	377.505135727581	0.0999809585046023	0.200022869277745
88806.75	100	430	3	22	1	2	90	1	1	0	1	112.5	67.5	-2.85081144372993	1.87266498447606	0.2	0	0	0	377.705193705391	377.805173445027	0.0999797396361828	0.200057977810502
88881.75	100	431	3	23	1	2	90	1	1	0	1	112.5	157.5	1.65735576034303	0.279804814300626	0.2	0	0	0	378.005181441782	378.105155086145	0.0999736443627626	0.200007996754721
88956.75	100	432	3	24	1	2	90	1	1	0	1	22.5	157.5	1.23781242911483	0.296583328571	0.2	0	0	0	378.305182100274	378.405162570998	0.0999804707244039	0.200027014128864
89031.75	100	433	3	25	1	2	90	1	1	0	2	157.5	112.5	-0.178113009553959	2.02429009551367	0.2	0	0	0	378.605187146924	378.705195412273	0.100008265348151	0.200024575926363
89106.75	100	434	3	26	1	2	90	1	1	0	1	112.5	157.5	-1.09033480690738	-0.883247893505361	0.2	0	0	0	378.905191218713	379.00517412764	0.0999829089269042	0.199995806440711
89181.75	100	435	3	27	1	2	90	1	1	0	1	112.5	67.5	-1.39722013015451	-1.95345877894933	0.2	0	0	0	379.20520772459	379.305200873408	0.0999931488186121	0.200033596949652
89256.75	100	436	3	28	1	2	90	1	1	0	1	112.5	157.5	2.92391995317124	2.20990489625087	0.2	0	0	0	379.505226180889	379.605216891738	0.0999907108489424	0.200025307480246
89331.75	100	437	3	29	1	2	90	1	1	0	2	67.5	22.5	-2.99102252913623	-3.04841194413996	0.2	0	0	0	379.805232446874	379.905214136699	0.099981689825654	0.200015555135906
89406.75	100	438	3	30	1	2	90	1	1	0	2	67.5	22.5	1.97486935452231	-1.34990937558845	0.2	0	0	0	380.105239687953	380.205226254184	0.0999865662306547	0.20002555125393
89481.75	100	439	3	31	1	2	90	1	1	0	2	157.5	22.5	-3.02047828829216	-0.720334173221906	0.2	0	0	0	380.405253512086	380.505232519936	0.0999790078494698	0.200027257902548
89556.75	100	440	3	32	1	2	90	1	1	0	1	22.5	67.5	-0.926721086192857	-0.266972514466018	0.2	0	0	0	380.705282696057	380.805259753484	0.0999770574271679	0.200050176121294
89631.75	100	441	3	33	1	2	90	1	1	0	2	67.5	112.5	-3.03062710188123	0.392409293461463	0.2	0	0	0	381.005287986714	381.105248708976	0.0999607222620398	0.200028233230114
89706.75	100	442	3	34	1	2	90	1	1	0	1	22.5	157.5	1.16131555921451	-0.508747389904391	0.2	0	0	0	381.305273772683	381.405258875806	0.09998510312289	0.200025063706562
89781.75	100	443	3	35	1	2	90	1	1	0	2	157.5	22.5	1.37786792858185	-2.82553605598785	0.2	0	0	0	381.605281745084	381.705263435142	0.0999816900584847	0.200022869277745
89856.75	100	444	3	36	1	2	90	1	1	0	2	157.5	112.5	-0.159978079507777	-1.97929491561239	0.2	0	0	0	381.905288498616	382.005282866769	0.0999943681526929	0.200025063473731
89931.75	100	445	3	37	1	2	90	1	1	0	1	22.5	67.5	0.74654529457383	1.5024121668738	0.2	0	0	0	382.205300372094	382.305294008693	0.0999936365988106	0.200017505325377
90006.75	100	446	3	38	1	2	90	1	1	0	1	112.5	157.5	-3.01414424999446	-3.07722029534073	0.2	0	0	0	382.505321022822	382.605297836475	0.099976813653484	0.200027014128864
90081.75	100	447	3	39	1	2	90	1	1	0	2	67.5	22.5	2.31862063294725	-1.05967929388883	0.2	0	0	0	382.805327776354	382.905295812991	0.0999680366367102	0.200029939878732
90156.75	100	448	3	40	1	2	90	1	1	0	1	22.5	157.5	-2.00288067507425	0.805082292951171	0.2	0	0	0	383.10534428223	383.205324509414	0.0999802271835506	0.200048469239846
90231.75	100	449	3	41	1	2	90	1	1	0	1	112.5	157.5	0.310034148675716	-1.5652130672365	0.2	0	0	0	383.405350548215	383.505312245805	0.099961697589606	0.200026038801298
90306.75	100	450	3	42	1	2	90	1	1	0	1	22.5	157.5	-0.553055435494052	-3.02056691408948	0.2	0	0	0	383.705361934146	383.805316561135	0.0999546269886196	0.200049688341096
90381.75	100	451	3	43	1	2	90	1	1	0	2	67.5	112.5	0.814689567237515	0.861153957297973	0.2	0	0	0	384.005346988561	384.105325265089	0.0999782765284181	0.2000304274261
90456.75	100	452	3	44	1	2	90	1	1	0	2	157.5	22.5	2.74900400792881	0.753321812161476	0.2	0	0	0	384.305352766998	384.405332506401	0.0999797394033521	0.200027501909062
90531.75	100	453	3	45	1	2	90	1	1	3	2	67.5	112.5	0.0978065494378622	3.05454413128745	0.2	0	0	0	384.605380731868	384.705351694021	0.0999709621537477	0.200048225466162
90606.75	100	454	3	46	1	2	90	1	1	3	2	67.5	22.5	-1.95728370932848	1.11282328798274	0.2	0	0	0	384.905366517836	385.00535527803	0.0999887601938099	0.200014823814854
90681.75	100	455	3	47	1	2	90	1	1	3	1	22.5	157.5	-1.60705090497691	2.03193271053446	0.2	0	0	0	385.205379854189	385.305356667843	0.099976813653484	0.200024576159194
90756.75	100	456	3	48	1	2	90	1	1	1	-1	90	135	-1.41688095611801	-0.900327690185617	0.2	0	0	0	385.505376855377	385.605358788976	0.0999819335993379	0.200020187534392
90831.75	100	457	3	49	1	2	90	1	1	3	2	157.5	112.5	-0.372972509836927	-0.822096267558736	0.2	0	0	0	385.805384827778	385.905364079634	0.0999792518559843	0.200026038801298
90906.75	100	458	3	50	1	2	90	1	1	3	1	22.5	67.5	2.59152818437505	1.01937718977121	0.2	1	0.503880108008161	1	386.105392312864	386.205374978017	0.0999826651532203	0.200028233230114
90981.75	100	459	3	51	1	2	90	1	1	3	1	112.5	67.5	3.04862072409256	0.856480135556052	0.2	0	0	0	386.405397603521	386.505413426785	0.100015823263675	0.200022625504062
91056.75	100	460	3	52	1	2	90	1	1	3	2	157.5	22.5	1.11315453982509	-0.221665448283473	0.2	0	0	0	386.705438734265	386.805390679277	0.0999519450124353	0.200025307480246
91131.75	100	461	3	53	1	2	90	1	1	0	2	67.5	112.5	1.8915554658336	2.05709371561558	0.2	0	0	0	387.005448901094	387.105424008099	0.099975107004866	0.200058221817017
91206.75	100	462	3	54	1	2	90	1	1	0	1	112.5	67.5	3.06828590751238	1.61676837295215	0.2	0	0	0	387.305448827799	387.405412963592	0.0999641357921064	0.200024819700047
91281.75	100	463	3	55	1	2	90	1	1	0	1	112.5	157.5	-1.92728779253175	-0.027055927652532	0.2	0	0	0	387.605430468917	387.705456776079	0.100026307161897	0.200017505325377
91356.75	100	464	3	56	1	2	90	1	1	0	2	67.5	112.5	-2.07202996761791	-2.65364369030004	0.2	0	0	0	387.905447706347	388.005451339064	0.100003632716835	0.199990930268541
91431.75	100	465	3	57	1	2	90	1	1	0	1	112.5	67.5	2.72562932615049	-1.93781235778024	0.2	0	0	0	388.205475671217	388.305428347783	0.0999526765663177	0.20002433215268
91506.75	100	466	3	58	1	2	90	1	1	0	2	67.5	112.5	2.02702780991236	-2.73217527485391	0.2	0	0	0	388.505462432513	388.605438270839	0.0999758383259177	0.20003408472985
91581.75	100	467	3	59	1	2	90	1	1	0	2	67.5	22.5	2.46720237280586	-0.83041027390793	0.2	0	0	0	388.805465772748	388.905446487246	0.0999807144980878	0.200027501909062
91656.75	100	468	3	60	1	2	90	1	1	0	1	22.5	67.5	-0.891855475850849	-1.75685162048676	0.2	0	0	0	389.105473745149	389.205481522717	0.100007777567953	0.200027257902548
91731.75	100	469	3	61	1	2	90	1	1	0	2	157.5	112.5	-1.04579254769844	-1.44110243454697	0.2	0	0	0	389.405484399758	389.505466577131	0.0999821773730218	0.200002877041698
91806.75	100	470	3	62	1	2	90	1	1	0	2	157.5	22.5	2.94097571088094	1.48784715201252	0.2	0	0	0	389.705520654097	389.805483814562	0.0999631604645401	0.200054076965898
91881.75	100	471	3	63	1	2	90	1	1	0	1	112.5	157.5	-2.39212928852134	2.23937281421698	0.2	0	0	0	390.005507902941	390.105486423243	0.099978520302102	0.200024088378996
91956.75	100	472	3	64	1	2	90	1	1	0	2	67.5	22.5	0.573900927200737	-0.396296902408901	0.2	0	0	0	390.305530016543	390.405511218822	0.0999812022782862	0.200043593300506
92031.75	100	473	3	65	1	2	90	1	1	0	1	22.5	157.5	-1.08065081241338	-1.87894368348758	0.2	0	0	0	390.605536038522	390.705520410324	0.0999843718018383	0.200024819700047
92106.75	100	474	3	66	1	2	90	1	1	0	1	112.5	67.5	-2.94798937612471	2.5282655451189	0.2	0	0	0	390.905544742476	391.005532527808	0.0999877853319049	0.20002433215268
92181.75	100	475	3	67	1	2	90	1	1	0	1	22.5	67.5	2.25072276516825	2.10483641856749	0.2	0	0	0	391.205542475218	391.305521239294	0.0999787640757859	0.200009947409853
92256.75	100	476	3	68	1	2	90	1	1	0	1	22.5	157.5	0.586334986868912	1.90849202276972	0.2	0	0	0	391.5055521545	391.605532625224	0.0999804707244039	0.200030915206298
92331.75	100	477	3	69	1	2	90	1	1	0	1	22.5	67.5	1.03079050965833	3.00967746083163	0.2	0	0	0	391.805555006955	391.90555742057	0.100002413615584	0.200022381730378
92406.75	100	478	3	70	1	2	90	1	1	0	1	112.5	67.5	0.706815657827997	-1.68119762205876	0.2	0	0	0	392.105563954683	392.20554686361	0.0999829089269042	0.200006534112617
92481.75	100	479	3	71	1	2	90	1	1	0	2	157.5	22.5	-2.49867226675866	1.50218657497022	0.2	0	0	0	392.405573633965	392.50554337725	0.0999697432853281	0.20002677035518
92556.75	100	480	3	72	1	2	90	1	1	0	2	67.5	112.5	-0.870994552344825	0.0592708462199472	0.2	0	0	0	392.705598917091	392.805565734627	0.09996681753546	0.200055539840832
92631.75	100	481	3	73	1	2	90	1	1	0	1	112.5	157.5	-2.58975311734241	-3.13895077747277	0.2	0	0	0	393.005610546796	393.105562491808	0.0999519450124353	0.200044812168926
92706.75	100	482	3	74	1	2	90	1	1	0	2	157.5	22.5	-1.63082552235199	-2.01255914312078	0.2	0	0	0	393.305588774616	393.405568270246	0.0999794956296682	0.200026282807812
92781.75	100	483	3	75	1	2	90	1	1	0	1	22.5	67.5	0.898241493078795	0.239559092742126	0.2	0	0	0	393.605596259469	393.705581119051	0.0999848595820367	0.200027989223599
92856.75	100	484	3	76	1	2	90	1	1	0	2	67.5	22.5	1.38415497049618	2.59203154798754	0.2	0	0	0	393.905603988329	394.00558714103	0.0999831527005881	0.200022869277745
92931.75	100	485	3	77	1	2	90	1	1	0	2	67.5	112.5	-2.13846748419524	-1.56111587665072	0.2	0	0	0	394.205609278986	394.305595357437	0.0999860784504563	0.200022137956694
93006.75	100	486	3	78	1	2	90	1	1	0	1	112.5	67.5	0.782001352486971	-1.75778707514383	0.2	0	0	0	394.505619202042	394.605599428993	0.09998022695072	0.200023844605312
93081.75	100	487	3	79	1	2	90	1	1	0	2	157.5	22.5	-3.02203496475732	2.16008915870395	0.2	0	0	0	394.805637170793	394.905636414886	0.0999992440920323	0.20003774180077
93156.75	100	488	3	80	1	2	90	1	1	0	2	67.5	22.5	1.28186787439691	1.62024381284409	0.2	0	0	0	395.10564782517	395.205645119073	0.0999972939025611	0.200011410284787
93231.75	100	489	3	81	1	2	90	1	1	0	2	67.5	112.5	1.64049830230689	-2.65758733653403	0.2	0	0	0	395.405642388389	395.505625784863	0.099983396474272	0.199997269315645
93306.75	100	490	3	82	1	2	90	1	1	0	2	157.5	112.5	-1.10887796711067	-1.31936814629575	0.2	0	0	0	395.705662307562	395.805646191817	0.0999838842544705	0.20003652269952
93381.75	100	491	3	83	1	2	90	1	1	0	2	157.5	22.5	2.26324789222233	0.420263293542452	0.2	0	0	0	396.005701487884	396.105661722366	0.0999602344818413	0.200055296067148
93456.75	100	492	3	84	1	2	90	1	1	0	2	67.5	22.5	-1.19216253906092	2.26747336124551	0.2	0	0	0	396.305680203252	396.405662624631	0.0999824213795364	0.200018480885774
93531.75	100	493	3	85	1	2	90	1	1	0	1	112.5	157.5	0.472253983634257	-0.0240047667735506	0.2	0	0	0	396.605685981456	396.705667671282	0.099981689825654	0.200023356825113
93606.75	100	494	3	86	1	2	90	1	1	0	2	67.5	112.5	-1.83548669605738	-0.105324371888897	0.2	0	0	0	396.905715653207	397.005701243877	0.0999855906702578	0.200047981925309
93681.75	100	495	3	87	1	2	90	1	1	0	1	22.5	67.5	0.832677294936706	-0.750877714446089	0.2	0	0	0	397.205724113388	397.305706534535	0.0999824211467057	0.200022869510576
93756.75	100	496	3	88	1	2	90	1	1	0	2	157.5	112.5	1.05801808812789	1.71236059353691	0.2	0	0	0	397.505700878333	397.605695002479	0.0999941241461784	0.199994343798608
93831.75	100	497	3	89	1	2	90	1	1	0	2	157.5	112.5	-1.60396607987044	2.53626750299292	0.2	0	0	0	397.80570860696	397.905703218887	0.0999946119263768	0.200013604480773
93906.75	100	498	3	90	1	2	90	1	1	0	2	67.5	22.5	0.92815529642415	-1.4167422558336	0.2	0	0	0	398.105724869063	398.205706559122	0.0999816900584847	0.200021650176495
93981.75	100	499	3	91	1	2	90	1	1	0	1	22.5	157.5	-1.30873797389257	2.74381367387815	0.2	0	0	0	398.405733573018	398.505739643937	0.100006070919335	0.200027013896033
94056.75	100	500	3	92	1	2	90	1	1	0	1	112.5	67.5	-1.28343747781504	-0.961321081329601	0.2	0	0	0	398.705732524628	398.805715677561	0.0999831529334188	0.199992880690843
94131.75	100	501	3	93	1	2	90	1	1	0	1	22.5	67.5	1.76316454208939	-2.24761842681515	0.2	0	0	0	399.005773899145	399.105722431093	0.09994853194803	0.200058221584186
94206.75	100	502	3	94	1	2	90	1	1	0	2	67.5	22.5	2.9684400553541	2.3895848230722	0.2	0	0	0	399.305747982347	399.405734792119	0.099986809771508	0.20002555125393
94281.75	100	503	3	95	1	2	90	1	1	0	2	157.5	112.5	2.83999380752409	-2.90749641767183	0.2	0	0	0	399.605756930076	399.705754223745	0.0999972936697304	0.200022137956694
94356.75	100	504	3	96	1	2	90	1	1	0	2	157.5	22.5	3.04329207080549	0.914638193576246	0.2	0	0	0	399.905775874155	400.005755857332	0.099979983177036	0.200021650409326
94431.75	100	505	3	97	1	2	90	1	1	3	1	112.5	67.5	-2.94711007061561	1.53843249468963	0.2	0	0	0	400.205811640946	400.305768462364	0.099956821417436	0.200055783614516
94506.75	100	506	3	98	1	2	90	1	1	3	1	22.5	157.5	-2.27509062954619	-2.98684474602253	0.2	0	0	0	400.505798158236	400.605780823389	0.0999826651532203	0.200029695872217
94581.75	100	507	3	99	1	2	90	1	1	3	2	157.5	22.5	-2.30248074024712	-2.44008654110316	0.2	0	0	0	400.80580027937	400.905781481648	0.0999812022782862	0.20001945598051
94656.75	100	508	3	100	1	2	90	1	1	2	-1	45	90	-1.96331346851257	-0.758577429515806	0.2	0	0	0	401.105807764456	401.205796524649	0.0999887601938099	0.200026282807812
94731.75	100	509	3	101	1	2	90	1	1	3	2	67.5	112.5	0.808875615516707	-2.13318059894778	0.2	0	0	0	401.405814030208	401.505802059313	0.0999880291055888	0.200017505558208
94806.75	100	510	3	102	1	2	90	1	1	3	1	112.5	157.5	2.25795554369006	1.21395653286308	0.2	0	0	0	401.705850041006	401.805830755737	0.0999807147309184	0.200047981692478
94881.75	100	511	3	103	1	2	90	1	1	3	2	157.5	112.5	-0.0234099957271479	2.62302236406219	0.2	0	0	0	402.00583802117	402.105813371949	0.0999753507785499	0.200007265433669
94956.75	100	512	3	104	1	2	90	1	1	3	1	22.5	67.5	2.1879938051212	-0.0942183705580062	0.2	0	0	0	402.30584282428	402.405828658957	0.0999858346767724	0.200029452331364
95031.75	100	513	3	105	1	2	90	1	1	0	2	67.5	112.5	-0.13889634162894	0.455995272370503	0.2	0	0	0	402.605837874813	402.70582078374	0.0999829089269042	0.200009215855971
95106.75	100	514	3	106	1	2	90	1	1	0	2	157.5	112.5	-2.92736956723884	-2.51623414179541	0.2	0	0	0	402.90586388926	403.005858013639	0.099994124379009	0.200043105520308
95181.75	100	515	3	107	1	2	90	1	1	0	1	22.5	157.5	0.0103000759183551	-2.39569046639843	0.2	0	0	0	403.205883320887	403.305840873625	0.0999575527384877	0.200025307247415
95256.75	100	516	3	108	1	2	90	1	1	0	1	22.5	157.5	2.68085248575406	0.0371290595771345	0.2	0	0	0	403.505862524034	403.605844457634	0.0999819335993379	0.200021650409326
95331.75	100	517	3	109	1	2	90	1	1	0	1	22.5	67.5	-1.04758539992653	2.28513836161375	0.2	0	0	0	403.805867570918	403.905850236071	0.0999826651532203	0.20002311328426
95406.75	100	518	3	110	1	2	90	1	1	0	2	67.5	112.5	0.312547317583915	-1.67551726004352	0.2	0	0	0	404.105907726334	404.205874056323	0.0999663299880922	0.200057490263134
95481.75	100	519	3	111	1	2	90	1	1	0	2	157.5	112.5	1.90270155261677	-2.77052100032014	0.2	0	0	0	404.405889854999	404.505869106855	0.0999792518559843	0.200015798676759
95556.75	100	520	3	112	1	2	90	1	1	0	1	112.5	157.5	1.85050294753298	0.0429992550158436	0.2	0	0	0	404.705894901883	404.805888050934	0.0999931490514427	0.200025795027614
95631.75	100	521	3	113	1	2	90	1	1	0	1	22.5	67.5	-0.39953232944004	-2.64982596690855	0.2	0	0	0	405.005930668907	405.105888709193	0.0999580402858555	0.20004261797294
95706.75	100	522	3	114	1	2	90	1	1	0	1	112.5	67.5	-1.69474646688514	2.74628520990107	0.2	0	0	0	405.305915235775	405.405952270376	0.100037034600973	0.200026526581496
95781.75	100	523	3	115	1	2	90	1	1	0	2	67.5	22.5	0.23567508388561	1.47676295444688	0.2	0	0	0	405.60592467105	405.705905142007	0.0999804709572345	0.199972400674596
95856.75	100	524	3	116	1	2	90	1	1	0	1	112.5	67.5	-0.769384691128467	-1.47213183707256	0.2	0	0	0	405.90592362266	406.005909944884	0.0999863222241402	0.200018480652943
95931.75	100	525	3	117	1	2	90	1	1	0	1	112.5	157.5	-1.04157830491178	2.33903653818471	0.2	0	0	0	406.205935008591	406.305914504221	0.0999794956296682	0.200025063706562
96006.75	100	526	3	118	1	2	90	1	1	0	2	157.5	112.5	1.86870185667188	-0.484808108661246	0.2	0	0	0	406.505948588718	406.605929303449	0.0999807147309184	0.20003408449702
96081.75	100	527	3	119	1	2	90	1	1	0	2	157.5	112.5	-2.49169583111623	-1.28370987313375	0.2	0	0	0	406.805954367155	406.905938251177	0.0999838840216398	0.200025063706562
96156.75	100	528	3	120	1	2	90	1	1	0	1	112.5	157.5	-1.42105237693709	2.54972019570812	0.2	0	0	0	407.105975992978	407.205944517162	0.099968524184078	0.20003774180077
96231.75	100	529	3	121	1	2	90	1	1	0	1	22.5	67.5	-2.66946546582176	1.05535039834953	0.2	0	0	0	407.405966411345	407.505987598328	0.100021186983213	0.20002189418301
96306.75	100	530	3	122	1	2	90	1	1	0	2	67.5	112.5	0.459273362640959	2.79743853815302	0.2	0	0	0	407.70600534766	407.805986062391	0.0999807147309184	0.200017749331892
96381.75	100	531	3	123	1	2	90	1	1	0	2	157.5	22.5	-1.96718060352545	3.02358527318346	0.2	0	0	0	408.005986745004	408.105966971954	0.09998022695072	0.200000682612881
96456.75	100	532	3	124	1	2	90	1	1	3	1	112.5	157.5	1.09162170468039	-2.35729167571224	0.2	0	0	0	408.305997155607	408.405973481713	0.0999763261061162	0.200030183652416
96531.75	100	533	3	125	1	2	90	1	1	3	1	22.5	67.5	2.47568170680996	1.61538088511038	0.2	0	0	0	408.60599927674	408.705980966799	0.0999816900584847	0.200025795027614
96606.75	100	534	3	126	1	2	90	1	1	3	1	22.5	157.5	2.57925054037557	-1.69167624337667	0.2	0	0	0	408.905996277928	409.006019415567	0.100023137638345	0.200015311129391
96681.75	100	535	3	127	1	2	90	1	1	3	1	112.5	67.5	1.81626129007826	1.20426055949133	0.2	0	0	0	409.206022048602	409.305997399613	0.0999753510113806	0.200002633035183
98223.5	100	536	4	0	1	1	90	2	1	3	2	67.5	112.5	1.20711661848554	-1.19959659773748	0.2	0	0	0	415.372865599114	415.472849239595	0.0999836404807866	-1
98298.5	100	537	4	1	1	1	90	2	1	3	1	112.5	67.5	-2.68189094709645	-0.258254214717171	0.2	0	0	0	415.672890882241	415.772853311151	0.0999624289106578	0.200041642645374
98373.5	100	538	4	2	1	1	90	2	1	3	1	112.5	157.5	1.50957321019599	-0.991345240552024	0.2	0	0	0	415.972905681469	416.072870792355	0.099965110886842	0.20005237031728
98448.5	100	539	4	3	1	1	90	2	1	3	1	22.5	67.5	1.13840530882256	-2.84382241244387	0.2	0	0	0	416.272886347491	416.37286754977	0.0999812022782862	0.200015555135906
98523.5	100	540	4	4	1	1	90	2	1	0	1	22.5	157.5	1.7633876400662	-1.15779027233519	0.2	0	0	0	416.572896758094	416.672874790849	0.0999780327547342	0.20002920832485
98598.5	100	541	4	5	1	1	90	2	1	0	2	67.5	22.5	2.11717885442067	0.95235186457624	0.2	0	0	0	416.872927892487	416.972894710023	0.09996681753546	0.200053101638332
98673.5	100	542	4	6	1	1	90	2	1	0	1	112.5	67.5	-1.85991543948921	-0.610455542232382	0.2	0	0	0	417.172910265159	417.272927795071	0.100017529912293	0.200015555135906
98748.5	100	543	4	7	1	1	90	2	1	0	2	157.5	112.5	-2.33659064183016	3.09665365623299	0.2	0	0	0	417.472938961582	417.572905779118	0.09996681753546	0.200011166511104
98823.5	100	544	4	8	1	1	90	2	1	0	2	67.5	22.5	-0.133624186647679	0.460770474258684	0.2	0	0	0	417.772942545591	417.872906437377	0.0999638917855918	0.200036766473204
98898.5	100	545	4	9	1	1	90	2	1	0	1	112.5	67.5	-1.76303459982553	-0.936033301772841	0.2	0	0	0	418.072935889475	418.172920748824	0.0999848593492061	0.200029452098534
98973.5	100	546	4	10	1	1	90	2	1	0	1	22.5	157.5	-0.744154668739203	0.881359408010538	0.2	0	0	0	418.372946300078	418.472927502356	0.0999812022782862	0.20002555125393
99048.5	100	547	4	11	1	1	90	2	1	0	1	112.5	67.5	0.988900311142181	2.01171257602303	0.2	0	0	0	418.672980848001	418.772955467459	0.0999746194574982	0.200053345644847
99123.5	100	548	4	12	1	1	90	2	1	0	2	157.5	22.5	-2.17245255916747	1.61152607580345	0.2	0	0	0	418.972961757798	419.072939302772	0.0999775449745357	0.200006290338933
99198.5	100	549	4	13	1	1	90	2	1	0	2	157.5	112.5	-2.35147391361467	-2.83212091007558	0.2	0	0	0	419.272971436847	419.37294800696	0.0999765701126307	0.200032134074718
99273.5	100	550	4	14	1	1	90	2	1	0	1	112.5	157.5	0.76376522025037	0.224907176550627	0.2	0	0	0	419.572990868473	419.672974508954	0.0999836404807866	0.200042861513793
99348.5	100	551	4	15	1	1	90	2	1	0	2	157.5	112.5	-1.58406567702241	3.00154763035066	0.2	0	0	0	419.87298957631	419.972971022362	0.0999814460519701	0.200015067355707
99423.5	100	552	4	16	1	1	90	2	1	0	1	22.5	157.5	-0.0254915697029023	2.12060090711504	0.2	0	0	0	420.172998524271	420.272996793035	0.099998268764466	0.200027501909062
99498.5	100	553	4	17	1	1	90	2	1	0	1	112.5	67.5	1.80547951620441	-1.16169870326314	0.2	0	0	0	420.473005277803	420.572982579004	0.0999773012008518	0.20000848476775
99573.5	100	554	4	18	1	1	90	2	1	0	1	22.5	157.5	-2.5044950633359	-0.0182410505436357	0.2	0	0	0	420.773033486446	420.872994208708	0.0999607222620398	0.200050907442346
99648.5	100	555	4	19	1	1	90	2	1	0	1	22.5	67.5	1.34140363351128	0.211252578270164	0.2	0	0	0	421.073018053314	421.172984870849	0.09996681753546	0.200023844605312
99723.5	100	556	4	20	1	1	90	2	1	0	1	112.5	67.5	-1.79595525183103	1.64714981958999	0.2	0	0	0	421.373039679369	421.473001132952	0.0999614535830915	0.200054808519781
99798.5	100	557	4	21	1	1	90	2	1	0	1	22.5	157.5	2.06473337157483	1.31355981352979	0.2	0	0	0	421.673050577519	421.773040800821	0.0999902233015746	0.200049444567412
99873.5	100	558	4	22	1	1	90	2	1	0	1	112.5	67.5	0.474522238577425	0.596427576101557	0.2	0	0	0	421.973067571176	422.073025855236	0.0999582840595394	0.20002677035518
99948.5	100	559	4	23	1	1	90	2	1	0	1	22.5	157.5	0.41221312559935	3.0899706886157	0.2	0	0	0	422.273049212294	422.37303748494	0.0999882726464421	0.200023357057944
100023.5	100	560	4	24	1	1	90	2	1	0	1	22.5	67.5	0.0917451535464275	1.65574702692179	0.2	0	0	0	422.573057184694	422.673065693816	0.100008509121835	0.200019699754193
100098.5	100	561	4	25	1	1	90	2	1	0	1	112.5	157.5	2.14337766122691	2.90666403508881	0.2	0	0	0	422.873073446797	422.973051235778	0.0999777889810503	0.200007752981037
100173.5	100	562	4	26	1	1	90	2	1	0	2	67.5	22.5	1.05969125169404	-3.00128965068085	0.2	0	0	0	423.173105312744	423.273058720864	0.0999534081202	0.200054076965898
100248.5	100	563	4	27	1	1	90	2	1	0	2	67.5	112.5	-1.54679145975879	-0.915044826442382	0.2	0	0	0	423.473105239682	423.573086685734	0.0999814460519701	0.200046518817544
100323.5	100	564	4	28	1	1	90	2	1	0	2	157.5	22.5	1.53234622870325	-3.12785304503476	0.2	0	0	0	423.773109311238	423.873091976391	0.0999826651532203	0.200022625504062
100398.5	100	565	4	29	1	1	90	2	1	0	2	157.5	112.5	1.9237934877153	2.6009813960582	0.2	0	0	0	424.073108750628	424.173091415549	0.0999826649203897	0.200016774237156
100473.5	100	566	4	30	1	1	90	2	1	0	1	112.5	67.5	0.558011417954224	-0.0457970948697901	0.2	0	0	0	424.373097949661	424.473082321463	0.0999843718018383	0.200006534112617
100548.5	100	567	4	31	1	1	90	2	1	0	2	157.5	22.5	1.60811190541997	-3.06069282951244	0.2	0	0	0	424.673103240319	424.773086149478	0.0999829091597348	0.200020918855444
100623.5	100	568	4	32	1	1	90	2	1	0	2	157.5	112.5	-1.60578551851676	-0.646853810620066	0.2	0	0	0	424.973109993851	425.073090221034	0.0999802271835506	0.200023844372481
100698.5	100	569	4	33	1	1	90	2	1	3	2	157.5	22.5	-3.09023118002412	-2.02901483683198	0.2	0	0	0	425.273120404687	425.373100875411	0.0999804707244039	0.200030183652416
100773.75	100	570	4	34	1	1	90	2	1	3	1	22.5	67.5	-0.590008481720601	-1.2534062542852	0.2	0	0	0	425.573156903032	425.673141274834	0.0999843718018383	0.200056027621031
100848.75	100	571	4	35	1	1	90	2	1	3	1	112.5	67.5	-0.700495103907415	-2.23852831425526	0.2	0	0	0	425.873149515595	425.973132180516	0.0999826649203897	0.200008240761235
100923.75	100	572	4	36	1	1	90	2	1	1	-1	90	135	1.95818054229851	2.28043441791651	0.2	0	0	0	426.173156025121	426.273140884703	0.0999848595820367	0.200023844605312
100998.75	100	573	4	37	1	1	90	2	1	3	1	22.5	157.5	1.77045731404746	3.06790356507204	0.2	0	0	0	426.473191548372	426.573151782854	0.0999602344818413	0.200050663668662
101073.75	100	574	4	38	1	1	90	2	1	3	2	67.5	112.5	2.05938757720259	-3.1385692013986	0.2	0	0	0	426.773193913279	426.873161949683	0.0999680364038795	0.200042130425572
101148.75	100	575	4	39	1	1	90	2	1	3	2	67.5	22.5	-3.12855037559345	-2.05624240576564	0.2	1	0.792200823081657	1	427.073201398132	427.173182844184	0.0999814460519701	0.200039448449388
101223.75	100	576	4	40	1	1	90	2	1	3	1	112.5	157.5	2.61662282624253	-1.21027093649856	0.2	0	0	0	427.373210102087	427.473173262551	0.0999631604645401	0.200027257902548
101298.75	100	577	4	41	1	1	90	2	1	0	1	112.5	157.5	0.0964108086612461	0.943107970781837	0.2	0	0	0	427.673218806274	427.773188549327	0.0999697430524975	0.200045543722808
101373.75	100	578	4	42	1	1	90	2	1	0	2	67.5	22.5	-1.85757669346712	1.96611192759061	0.2	0	0	0	427.973212881712	428.073188963812	0.0999760820996016	0.20002433238551
101448.75	100	579	4	43	1	1	90	2	1	0	2	67.5	112.5	-0.0637997975963458	-0.601488575263665	0.2	0	0	0	428.273213052191	428.373196448898	0.0999833967071027	0.200024088378996
101523.75	100	580	4	44	1	1	90	2	1	0	2	67.5	22.5	-2.97073663216999	0.829209501395535	0.2	0	0	0	428.573218586855	428.673192718532	0.0999741316772997	0.200022137956694
101598.75	100	581	4	45	1	1	90	2	1	0	1	112.5	157.5	2.14483447242081	0.642228088447928	0.2	0	0	0	428.873215831816	428.973200934939	0.09998510312289	0.20002311328426
101673.75	100	582	4	46	1	1	90	2	1	0	1	22.5	67.5	2.04460503496944	-0.0692169106773477	0.2	0	0	0	429.173238432966	429.273209882667	0.0999714497011155	0.200037498027086
101748.75	100	583	4	47	1	1	90	2	1	0	1	22.5	67.5	-2.77669796852741	0.84421678372598	0.2	0	0	0	429.473264447413	429.573217855301	0.0999534078873694	0.200054564746097
101823.75	100	584	4	48	1	1	90	2	1	0	1	22.5	157.5	0.269099130192827	2.92479941395543	0.2	0	0	0	429.773272907594	429.873223877512	0.0999509699176997	0.200055052293465
101898.75	100	585	4	49	1	1	90	2	1	0	1	112.5	67.5	0.152782328083074	-2.83776543070057	0.2	0	0	0	430.073271127651	430.173266470898	0.0999953432474285	0.200047250138596
101973.75	100	586	4	50	1	1	90	2	1	0	2	157.5	22.5	0.824420557647349	-1.31078424782149	0.2	0	0	0	430.373260083143	430.473273468204	0.100013385061175	0.199993612244725
102048.75	100	587	4	51	1	1	90	2	1	0	1	22.5	157.5	-0.834769671245795	-2.75174370305615	0.2	0	0	0	430.673269030871	430.773284610361	0.100015579489991	0.199995562667027
102123.75	100	588	4	52	1	1	90	2	1	0	2	157.5	22.5	2.76205859312271	1.29256963677982	0.2	0	0	0	430.973319182638	431.073266983032	0.0999478003941476	0.200034572277218
102198.75	100	589	4	53	1	1	90	2	1	0	1	112.5	157.5	2.14288440952737	1.40292483770359	0.2	0	0	0	431.273294240935	431.373276174534	0.0999819335993379	0.200027257902548
102273.75	100	590	4	54	1	1	90	2	1	0	1	112.5	157.5	-2.17989506894964	-1.31045502401918	0.2	0	0	0	431.573305139085	431.67328365962	0.0999785205349326	0.200028964551166
102348.75	100	591	4	55	1	1	90	2	1	0	1	112.5	157.5	0.577976440251026	-1.78841771798829	0.2	0	0	0	431.873310429743	431.973291144473	0.0999807147309184	0.200026770122349
102423.75	100	592	4	56	1	1	90	2	1	0	2	67.5	112.5	-0.186813761393736	1.90897550001241	0.2	0	0	0	432.173306455836	432.273288633209	0.0999821773730218	0.200015311362222
102498.75	100	593	4	57	1	1	90	2	1	0	2	157.5	112.5	-1.06688485821501	-0.281393635332323	0.2	0	0	0	432.473317110213	432.573295874288	0.0999787640757859	0.200028477003798
102573.75	100	594	4	58	1	1	90	2	1	0	1	22.5	67.5	2.29028539246006	1.33833944243255	0.2	0	0	0	432.773326301947	432.873307747999	0.0999814460519701	0.20003042765893
102648.75	100	595	4	59	1	1	90	2	1	0	2	157.5	22.5	0.0578206579503382	-2.3215258651365	0.2	0	0	0	433.073330861051	433.173312794883	0.0999819338321686	0.200023113051429
102723.75	100	596	4	60	1	1	90	2	1	0	2	67.5	112.5	-0.525253032291415	3.00604468730681	0.2	0	0	0	433.373340052785	433.473354656948	0.100014604162425	0.200027257902548
102798.75	100	597	4	61	1	1	90	2	1	0	2	67.5	22.5	-0.825480040804924	1.8623261213878	0.2	0	0	0	433.673378013773	433.773340442684	0.0999624289106578	0.200023356825113
102873.75	100	598	4	62	1	1	90	2	1	0	1	112.5	67.5	-0.701797982037555	-0.758188255496044	0.2	0	0	0	433.973354534945	434.0733396383	0.0999851033557206	0.200014092260972
102948.75	100	599	4	63	1	1	90	2	1	0	1	22.5	157.5	-1.88397012736431	2.26996525550577	0.2	0	0	0	434.273364701774	434.373344928958	0.0999802271835506	0.200025063473731
103023.75	100	600	4	64	1	1	90	2	1	0	1	112.5	67.5	-0.543009098978862	-2.52866412214221	0.2	0	0	0	434.573368773563	434.673356070882	0.0999872973188758	0.200023844605312
103098.75	100	601	4	65	1	1	90	2	1	0	1	112.5	157.5	2.8493623520845	-2.31268093534819	0.2	0	0	0	434.873382597463	434.973364043515	0.0999814460519701	0.200026526581496
103173.75	100	602	4	66	1	1	90	2	1	0	2	67.5	22.5	0.60128428655437	1.1221968954808	0.2	0	0	0	435.173391057644	435.273368359078	0.0999773014336824	0.200027014128864
103248.75	100	603	4	67	1	1	90	2	1	3	2	67.5	22.5	-2.92500689378658	2.06052754518245	0.2	0	0	0	435.473402687348	435.573405588744	0.100002901395783	0.200034328270704
