onset	duration	total_event_number	stream_number	event_num_per_stream	timing_predictability	target_col	target_ori	n_targets	n_distractors	is_target	ori_pair_num	att_ori	unatt_ori	gabor_phase_att	gabor_phase_unatt	blank_dur	response	rt	correct	time_stimon	time_stimoff	stim_dur	ISI_dur
21444.75	100	0	0	0	1	2	90	2	1	3	2	157.5	112.5	-2.601963409988	-0.13800188383237	0.2	0	0	0	104.496537781553	104.596499479143	0.099961697589606	-1
21519.75	100	1	0	1	1	2	90	2	1	3	1	22.5	67.5	-2.499528921462	2.77403339765313	0.2	0	0	0	104.796548436163	104.896511840168	0.0999634040053934	0.200048957020044
21594.75	100	2	0	2	1	2	90	2	1	3	2	157.5	22.5	-0.988748189028203	1.25172287024261	0.2	0	0	0	105.09653251525	105.196515180403	0.0999826651532203	0.20002067508176
21669.75	100	3	0	3	1	2	90	2	1	3	1	112.5	157.5	-1.47807604157787	2.36584220675561	0.2	0	0	0	105.396522202296	105.496497553075	0.0999753507785499	0.200007021892816
21744.75	100	4	0	4	1	2	90	2	1	0	1	112.5	67.5	2.06625928000038	2.77830257554905	0.2	0	0	0	105.69653334422	105.796507963678	0.0999746194574982	0.200035791145638
21819.75	100	5	0	5	1	2	90	2	1	0	1	112.5	67.5	-2.12724394791863	-1.51052616533248	0.2	0	0	0	105.99652863876	106.096513254335	0.0999846155755222	0.20002067508176
21894.75	100	6	0	6	1	2	90	2	1	0	2	157.5	112.5	-2.99647795845957	0.373936274560771	0.2	0	0	0	106.296541487565	106.396520739421	0.0999792518559843	0.200028233230114
21969.75	100	7	0	7	1	2	90	2	1	0	1	22.5	157.5	2.8336259252363	2.7851289152706	0.2	0	0	0	106.596546290675	106.696529199602	0.0999829089269042	0.20002555125393
22044.75	100	8	0	8	1	2	90	2	1	0	2	157.5	22.5	0.177546449347848	2.13628164346043	0.2	0	0	0	106.896559383254	106.996537659783	0.0999782765284181	0.200030183652416
22119.75	100	9	0	9	1	2	90	2	1	0	2	157.5	112.5	-2.2204617351838	-2.27995158085433	0.2	0	0	0	107.196563698584	107.296546607511	0.0999829089269042	0.200026038801298
22194.75	100	10	0	10	1	2	90	2	1	0	1	22.5	67.5	0.271260351977801	-2.37741937677264	0.2	0	0	0	107.496574840741	107.596556530567	0.099981689825654	0.200028233230114
22269.75	100	11	0	11	1	2	90	2	1	0	2	67.5	112.5	-2.97167966881649	-0.363682777301712	0.2	0	0	0	107.796589396195	107.896575230872	0.0999858346767724	0.2000328656286
22344.75	100	12	0	12	1	2	90	2	1	0	2	157.5	112.5	0.1766168262966	-2.68577206613496	0.2	0	0	0	108.096601757221	108.196580765303	0.0999790080823004	0.200026526348665
22419.75	100	13	0	13	1	2	90	2	1	0	2	67.5	112.5	3.00651197771902	-1.62961474213827	0.2	0	0	0	108.39660241548	108.496577766491	0.0999753510113806	0.200021650176495
22494.75	100	14	0	14	1	2	90	2	1	0	2	67.5	22.5	2.28283849204663	-2.68216132489738	0.2	0	0	0	108.696611607214	108.797330089612	0.100718482397497	0.200033840723336
22569.75	100	15	0	15	1	2	90	2	1	0	1	112.5	157.5	1.23274076253176	1.06482489338734	0.2	0	0	0	108.996613728348	109.096598343924	0.0999846155755222	0.199283638736233
22644.75	100	16	0	16	1	2	90	2	1	0	2	67.5	22.5	-1.50095748287697	1.78402261128146	0.2	0	0	0	109.296619019005	109.396602659253	0.0999836402479559	0.20002067508176
22719.75	100	17	0	17	1	2	90	2	1	0	1	112.5	67.5	-0.83754990985014	2.49459064962579	0.2	0	0	0	109.59664015728	109.696621847106	0.099981689825654	0.200037498027086
22794.75	100	18	0	18	1	2	90	2	1	0	2	67.5	112.5	-2.09203659652227	-2.17117589638285	0.2	0	0	0	109.89664788614	109.996629575966	0.099981689825654	0.200026039034128
22869.75	100	19	0	19	1	2	90	2	1	0	1	22.5	67.5	1.70863627053679	1.35792127212417	0.2	0	0	0	110.196661953814	110.296641693218	0.0999797394033521	0.200032377848402
22944.75	100	20	0	20	1	2	90	2	1	0	1	22.5	157.5	0.204784073053014	1.00692138163022	0.2	0	0	0	110.496667244472	110.596645765007	0.0999785205349326	0.20002555125393
23019.75	100	21	0	21	1	2	90	2	1	0	2	67.5	112.5	1.75335359315263	-2.24322911459697	0.2	0	0	0	110.796673510456	110.896658613579	0.09998510312289	0.200027745449916
23094.75	100	22	0	22	1	2	90	2	1	0	2	67.5	22.5	-1.07024640041426	2.40540963554006	0.2	0	0	0	111.096682701958	111.196664392017	0.0999816900584847	0.200024088378996
23169.75	100	23	0	23	1	2	90	2	1	0	1	22.5	157.5	-1.74018049025911	2.9376705088979	0.2	0	0	0	111.396693844115	111.496678947471	0.0999851033557206	0.200029452098534
23244.75	100	24	0	24	1	2	90	2	1	0	2	157.5	112.5	1.95728288874905	-1.76188162145973	0.2	0	0	0	111.6966942586	111.79667960573	0.0999853471294045	0.200015311129391
23319.75	100	25	0	25	1	2	90	2	1	0	1	22.5	157.5	3.04688023614131	2.84316729426187	0.2	0	0	0	111.996707838727	112.09669050388	0.0999826651532203	0.200028232997283
23394.75	100	26	0	26	1	2	90	2	1	3	2	157.5	112.5	2.2156320871734	-0.639270909882969	0.2	0	0	0	112.296715567587	112.396700426936	0.0999848593492061	0.200025063706562
23469.75	100	27	0	27	1	2	90	2	1	3	2	67.5	112.5	1.92314846676763	-0.0800429114021566	0.2	0	0	0	112.596747677308	112.696701572975	0.0999538956675678	0.200047250371426
23544.75	100	28	0	28	1	2	90	2	1	3	1	112.5	157.5	2.00014487229322	3.07795312685599	0.2	0	0	0	112.896729805972	112.996718078852	0.0999882728792727	0.200028232997283
23619.75	100	29	0	29	1	2	90	2	1	1	-1	90	45	1.50716663721348	2.08881146274543	0.2	0	0	0	113.196736803511	113.296719956212	0.0999831527005881	0.200018724659458
23694.75	100	30	0	30	1	2	90	2	1	3	1	22.5	157.5	-1.71694642126595	-2.12707147853807	0.2	0	0	0	113.496746238787	113.596730854362	0.0999846155755222	0.200026282574981
23769.75	100	31	0	31	1	2	90	2	1	3	2	67.5	22.5	0.110827373004186	-0.430261107019605	0.2	1	0.492185048526153	1	113.796756405616	113.896733950824	0.0999775452073663	0.20002555125393
23844.75	100	32	0	32	1	2	90	2	1	3	1	112.5	67.5	-0.907527305398515	0.0980494699140371	0.2	0	0	0	114.0967614525	114.196744117653	0.0999826651532203	0.200027501676232
23919.75	100	33	0	33	1	2	90	2	1	3	2	157.5	22.5	-2.9595049962518	-1.01086307805273	0.2	0	0	0	114.396771619329	114.496755503584	0.0999838842544705	0.200027501676232
23994.75	100	34	0	34	1	2	90	2	1	0	2	67.5	22.5	-2.96605883177231	-1.9116926433783	0.2	0	0	0	114.69678349304	114.796750798123	0.0999673050828278	0.20002798945643
24069.75	100	35	0	35	1	2	90	2	1	0	2	157.5	22.5	-1.38595419448334	-1.14023748264937	0.2	0	0	0	114.996776349377	115.096762427827	0.0999860784504563	0.20002555125393
24144.75	100	36	0	36	1	2	90	2	1	0	1	22.5	67.5	-1.5131521023082	1.39581486333677	0.2	0	0	0	115.296783102909	115.396770644234	0.0999875413253903	0.20002067508176
24219.75	100	37	0	37	1	2	90	2	1	0	2	157.5	22.5	1.2096510353999	-3.01917780631016	0.2	0	0	0	115.596791075543	115.696787881432	0.099996805889532	0.200020431308076
24294.75	100	38	0	38	1	2	90	2	1	0	2	67.5	112.5	2.86836882017386	0.339607722878702	0.2	0	0	0	115.896809775615	115.996795854066	0.0999860784504563	0.20002189418301
24369.75	100	39	0	39	1	2	90	2	1	0	2	157.5	112.5	-0.33157827968187	-0.374112779914845	0.2	0	0	0	116.196819454897	116.296800900949	0.0999814460519701	0.200023600831628
24444.75	100	40	0	40	1	2	90	2	1	0	1	112.5	157.5	2.74588519078486	-3.02798021733265	0.2	0	0	0	116.496825476876	116.596809848677	0.0999843718018383	0.200024575926363
24519.75	100	41	0	41	1	2	90	2	1	0	2	157.5	22.5	3.06643355664467	-1.05872998717179	0.2	0	0	0	116.796838081907	116.896818308858	0.09998022695072	0.200028233230114
24594.75	100	42	0	42	1	2	90	2	1	0	1	112.5	157.5	2.85885328147564	0.778656769839118	0.2	1	0	0	117.096849711612	117.196828963468	0.0999792518559843	0.200031402753666
24669.75	100	43	0	43	1	2	90	2	1	0	2	157.5	112.5	-0.850517816213696	0.0770462055732404	0.2	0	0	0	117.396850369871	117.496821819805	0.0999714499339461	0.200021406402811
24744.75	100	44	0	44	1	2	90	2	1	0	2	67.5	22.5	-1.75638702495315	-2.73764169019665	0.2	0	0	0	117.69684810238	117.796830523759	0.0999824213795364	0.200026282574981
24819.75	100	45	0	45	1	2	90	2	1	0	1	22.5	67.5	-1.71627828808028	3.04786791230238	0.2	0	0	0	117.996884844499	118.096868484979	0.0999836404807866	0.200054320739582
24894.75	100	46	0	46	1	2	90	2	1	0	1	22.5	67.5	-1.90565137776187	1.81183851720572	0.2	0	0	0	118.296894036233	118.39686451084	0.0999704746063799	0.20002555125393
24969.75	100	47	0	47	1	2	90	2	1	0	1	112.5	67.5	-1.85747694027375	2.96375311682729	0.2	0	0	0	118.596906885039	118.69688126049	0.0999743754509836	0.200042374199256
25044.75	100	48	0	48	1	2	90	2	1	0	2	67.5	22.5	0.779532165496002	-2.4832430463625	0.2	0	0	0	118.896891208133	118.99686290184	0.09997169370763	0.200009947642684
25119.75	100	49	0	49	1	2	90	2	1	0	2	67.5	112.5	2.51521146693495	-1.47300311948915	0.2	1	0	0	119.196888696868	119.296870630467	0.0999819335993379	0.200025795027614
25194.75	100	50	0	50	1	2	90	2	1	0	1	22.5	67.5	2.13901950304317	-2.89285272038389	0.2	0	0	0	119.49689837615	119.596881772624	0.099983396474272	0.200027745682746
25269.75	100	51	0	51	1	2	90	2	1	0	1	112.5	157.5	-0.128972266520242	1.75299255334344	0.2	0	0	0	119.796902935253	119.896887307055	0.0999843718018383	0.200021162629128
25344.75	100	52	0	52	1	2	90	2	1	0	2	157.5	112.5	0.961189391099717	-1.44232970725985	0.2	0	0	0	120.096918953583	120.196894792141	0.0999758385587484	0.20003164652735
25419.75	100	53	0	53	1	2	90	2	1	0	1	22.5	157.5	1.88271717502765	-2.32757106689693	0.2	0	0	0	120.396922537591	120.496901789447	0.0999792518559843	0.200027745449916
25494.75	100	54	0	54	1	2	90	2	1	0	1	112.5	157.5	-2.60891371315984	-0.488491385890847	0.2	0	0	0	120.69694099389	120.796923171496	0.0999821776058525	0.200039204442874
25569.75	100	55	0	55	1	2	90	2	1	0	1	22.5	157.5	1.00898939791127	2.58498924501554	0.2	0	0	0	120.996947991196	121.096930412576	0.0999824213795364	0.200024819700047
25644.75	100	56	0	56	1	2	90	2	1	0	2	67.5	22.5	2.57470568988309	2.00420403906088	0.2	0	0	0	121.296959377127	121.39694204228	0.0999826651532203	0.200028964551166
25719.75	100	57	0	57	1	2	90	2	1	0	1	112.5	157.5	1.77376133353954	-1.51670429153294	0.2	0	0	0	121.596968812635	121.696945626289	0.099976813653484	0.20002677035518
25794.75	100	58	0	58	1	2	90	2	1	0	1	22.5	157.5	1.57167886193788	-2.20308616109692	0.2	0	0	0	121.896985318512	121.996976516908	0.0999911983963102	0.200039692223072
25869.75	100	59	0	59	1	2	90	2	1	0	1	22.5	67.5	-0.138024336406039	2.63373226346946	0.2	0	0	0	122.19700304349	122.296988878166	0.0999858346767724	0.200026526581496
25944.75	100	60	0	60	1	2	90	2	1	0	1	112.5	67.5	-2.0199076159187	0.443560997992332	0.2	0	0	0	122.497009309474	122.596980271628	0.0999709621537477	0.200020431308076
26019.75	100	61	0	61	1	2	90	2	1	0	2	67.5	112.5	1.81669149197164	1.25925995544416	0.2	0	0	0	122.797018257203	122.897007261403	0.0999890042003244	0.200037985574454
26094.75	100	62	0	62	1	2	90	2	1	3	1	22.5	157.5	-1.05232546901598	-2.57948502369888	0.2	0	0	0	123.097030130681	123.196995729115	0.0999655984342098	0.200022869277745
26169.75	100	63	0	63	1	2	90	2	1	3	1	112.5	67.5	1.89013022814501	-2.78014291584756	0.2	0	0	0	123.397042248165	123.497018574271	0.0999763261061162	0.200046519050375
26244.75	100	64	0	64	1	2	90	2	1	3	2	67.5	22.5	2.96351014815685	1.18253048062654	0.2	0	0	0	123.697043637745	123.797025083797	0.0999814460519701	0.200025063473731
26319.75	100	65	0	65	1	2	90	2	1	1	-1	90	135	-0.654466037353358	-0.469246871969008	0.2	0	0	0	123.997054048581	124.097036713501	0.0999826649203897	0.200028964783996
26394.75	100	66	0	66	1	2	90	2	1	3	2	67.5	112.5	-0.619604897067882	-2.68660147759233	0.2	0	0	0	124.297046904918	124.39702249947	0.0999755945522338	0.200010191416368
26469.75	100	67	0	67	1	2	90	2	1	3	1	112.5	157.5	2.80730838631204	2.7542324512476	0.2	0	0	0	124.597051464021	124.697036079597	0.0999846155755222	0.200028964551166
26544.75	100	68	0	68	1	2	90	2	1	3	2	157.5	22.5	1.41245167298648	0.84470833066702	0.2	1	0.792173760244623	1	124.897056754678	124.997035762761	0.0999790080823004	0.20002067508176
26619.75	100	69	0	69	1	2	90	2	1	3	2	157.5	112.5	-2.07342815508763	1.89518833478663	0.2	0	0	0	125.197064971086	125.297046417138	0.0999814460519701	0.20002920832485
26694.75	100	70	0	70	1	2	90	2	1	0	2	157.5	112.5	-2.34338705073577	-2.61542284316697	0.2	0	0	0	125.497069286648	125.597058534622	0.0999892479740083	0.200022869510576
26769.75	100	71	0	71	1	2	90	2	1	0	2	67.5	22.5	-2.19188479378291	2.23825053405011	0.2	0	0	0	125.797083110549	125.897059680428	0.0999765698798001	0.200024575926363
26844.75	100	72	0	72	1	2	90	2	1	0	2	157.5	22.5	2.54376073949195	-2.72299092133952	0.2	0	0	0	126.097086450784	126.197070822585	0.0999843718018383	0.20002677035518
26919.75	100	73	0	73	1	2	90	2	1	0	2	157.5	112.5	1.92580875012612	2.27938235537166	0.2	0	0	0	126.397096861387	126.49707660079	0.0999797394033521	0.200026038801298
26994.75	100	74	0	74	1	2	90	2	1	0	1	22.5	67.5	-2.22315238460315	-0.290449533825563	0.2	0	0	0	126.697101664497	126.797091156244	0.0999894917476922	0.200025063706562
27069.75	100	75	0	75	1	2	90	2	1	0	1	22.5	157.5	2.05152584131089	-1.01063918965112	0.2	0	0	0	126.997109393356	127.097098397557	0.0999890042003244	0.20001823711209
27144.75	100	76	0	76	1	2	90	2	1	0	2	157.5	22.5	3.01785124681741	0.333411689433963	0.2	0	0	0	127.297120535281	127.397104663309	0.0999841280281544	0.200022137723863
27219.75	100	77	0	77	1	2	90	2	1	0	2	67.5	112.5	0.988145826204178	2.68084217670117	0.2	0	0	0	127.597115098499	127.697095812997	0.0999807144980878	0.200010435190052
27294.75	100	78	0	78	1	2	90	2	1	0	2	157.5	22.5	-0.939917321676419	-1.45858022888117	0.2	0	0	0	127.897125509102	127.997105736053	0.09998022695072	0.200029696105048
27369.75	100	79	0	79	1	2	90	2	1	0	1	22.5	157.5	0.305740073424443	-2.32964928956424	0.2	0	0	0	128.197131043533	128.297113464912	0.0999824213795364	0.200025307480246
27444.75	100	80	0	80	1	2	90	2	1	0	2	67.5	112.5	-2.31859683916623	0.169112099217874	0.2	0	0	0	128.497139016166	128.597121193539	0.0999821773730218	0.20002555125393
27519.75	100	81	0	81	1	2	90	2	1	0	1	112.5	157.5	-3.05210163383628	-1.64345401693003	0.2	0	0	0	128.797150889644	128.897128922399	0.0999780327547342	0.200029696105048
27594.75	100	82	0	82	1	2	90	2	1	0	2	157.5	22.5	2.95869024291551	-2.45388881635436	0.2	0	0	0	129.097159837373	129.197145184502	0.0999853471294045	0.200030914973468
27669.75	100	83	0	83	1	2	90	2	1	0	2	157.5	22.5	0.940433685351571	-2.12717809340619	0.2	0	0	0	129.397165859584	129.497146818088	0.0999809585046023	0.20002067508176
27744.75	100	84	0	84	1	2	90	2	1	0	1	112.5	67.5	0.167013644582234	-2.825047554639	0.2	0	0	0	129.697171150241	129.797166493488	0.0999953432474285	0.20002433215268
27819.75	100	85	0	85	1	2	90	2	1	0	2	67.5	112.5	2.72454500396544	-1.8738453574722	0.2	0	0	0	129.99719009432	130.097175197443	0.09998510312289	0.200023600831628
27894.75	100	86	0	86	1	2	90	2	1	0	1	112.5	67.5	-0.415887574439307	-1.18128656433227	0.2	0	0	0	130.297198066721	130.397182194749	0.0999841280281544	0.200022869277745
27969.75	100	87	0	87	1	2	90	2	1	0	1	22.5	157.5	2.33572970319094	-1.22518721902457	0.2	0	0	0	130.597217742354	130.697192361578	0.0999746192246675	0.200035547604784
28044.75	100	88	0	88	1	2	90	2	1	0	1	112.5	157.5	2.04929388606485	1.6304756230457	0.2	0	0	0	130.897214743309	130.997197652236	0.0999829089269042	0.200022381730378
28119.75	100	89	0	89	1	2	90	2	1	3	1	22.5	67.5	-1.81557454049673	-1.31971499719218	0.2	0	0	0	131.197227592114	131.297205137322	0.0999775452073663	0.200029939878732
28194.75	100	90	0	90	1	2	90	2	1	3	2	157.5	112.5	-1.55926786698203	0.000556689350127648	0.2	0	0	0	131.497233126545	131.597220424097	0.0999872975517064	0.200027989223599
28269.75	100	91	0	91	1	2	90	2	1	3	1	22.5	157.5	-1.30082888603869	-2.02381471495417	0.2	0	0	0	131.79726304207	131.897246926324	0.0999838842544705	0.20004261797294
28344.75	100	92	0	92	1	2	90	2	1	2	-1	135	90	-1.63023907646936	-0.961320929779732	0.2	0	0	0	132.09727077093	132.197253192076	0.0999824211467057	0.200023844605312
28419.75	100	93	0	93	1	2	90	2	1	3	1	112.5	157.5	0.543100745014581	-3.02747048470375	0.2	0	0	0	132.397263627267	132.497248486616	0.0999848593492061	0.200010435190052
28494.75	100	94	0	94	1	2	90	2	1	3	2	157.5	22.5	-1.51195558274837	-1.56797670846254	0.2	0	0	0	132.697285984643	132.797253045952	0.0999670613091439	0.200037498027086
28569.75	100	95	0	95	1	2	90	2	1	3	2	67.5	112.5	-0.508859138598633	-3.04517015387416	0.2	0	0	0	132.997288105777	133.097260287032	0.0999721812549978	0.200035059824586
28644.75	100	96	0	96	1	2	90	2	1	3	1	112.5	67.5	-2.3180324552251	1.4644872405737	0.2	0	0	0	133.297289983137	133.397267528111	0.0999775449745357	0.200029696105048
28719.75	100	97	0	97	1	2	90	2	1	0	1	112.5	67.5	2.57621314393493	0.320751131064639	0.2	0	0	0	133.597290885169	133.697272818768	0.0999819335993379	0.200023357057944
28794.75	100	98	0	98	1	2	90	2	1	0	2	157.5	22.5	-0.918702072371806	-1.95120237847036	0.2	0	0	0	133.89729934535	133.997294444824	0.0999950994737446	0.200026526581496
28869.75	100	99	0	99	1	2	90	2	1	0	1	112.5	67.5	-0.262882275067691	-0.15858358522797	0.2	0	0	0	134.197305367328	134.297289251583	0.0999838842544705	0.200010922504589
28944.75	100	100	0	100	1	2	90	2	1	0	2	67.5	22.5	0.523695779864812	2.7309415047913	0.2	0	0	0	134.497312364867	134.597298443317	0.0999860784504563	0.20002311328426
29019.75	100	101	0	101	1	2	90	2	1	0	2	157.5	22.5	2.54027155354264	-2.47380726808829	0.2	0	0	0	134.797326188767	134.897303733975	0.0999775452073663	0.200027745449916
29094.75	100	102	0	102	1	2	90	2	1	0	2	67.5	22.5	-0.498707283286237	2.00383433995871	0.2	0	0	0	135.097331479425	135.19731365703	0.0999821776058525	0.200027745449916
29169.75	100	103	0	103	1	2	90	2	1	0	1	22.5	67.5	2.62461897964095	-0.426140796496805	0.2	0	0	0	135.397343109129	135.497321385657	0.0999782765284181	0.200029452098534
29244.75	100	104	0	104	1	2	90	2	1	0	1	112.5	157.5	0.010360602619043	-0.0314060402101273	0.2	0	0	0	135.697344011161	135.797330089612	0.0999860784504563	0.200022625504062
29319.75	100	105	0	105	1	2	90	2	1	0	1	22.5	67.5	0.199962136379002	2.10244134947802	0.2	0	0	0	135.997358810389	136.097337087151	0.0999782767612487	0.200028720777482
29394.75	100	106	0	106	1	2	90	2	1	0	1	22.5	67.5	0.147696233183243	-0.671759999164352	0.2	0	0	0	136.297362638405	136.397343109129	0.0999804707244039	0.20002555125393
29469.75	100	107	0	107	1	2	90	2	1	0	1	112.5	157.5	-3.02406650239372	0.0420090763458427	0.2	0	0	0	136.597369879484	136.697353032185	0.0999831527005881	0.20002677035518
29544.75	100	108	0	108	1	2	90	2	1	0	1	112.5	67.5	-0.376206270769015	1.17961611523615	0.2	0	0	0	136.897380046314	136.997350277146	0.099970230832696	0.200027014128864
29619.75	100	109	0	109	1	2	90	2	1	0	2	67.5	112.5	-1.99109186665242	3.03126331512203	0.2	0	0	0	137.197373877978	137.297360200202	0.0999863222241402	0.200023600831628
29694.75	100	110	0	110	1	2	90	2	1	0	1	112.5	67.5	-3.11688414156217	-0.988315986464233	0.2	0	0	0	137.497382581932	137.597365490859	0.0999829089269042	0.200022381730378
29769.75	100	111	0	111	1	2	90	2	1	0	2	157.5	112.5	1.87974337887503	2.08781792641268	0.2	0	0	0	137.797391529661	137.897373707267	0.0999821776058525	0.200026038801298
29844.75	100	112	0	112	1	2	90	2	1	0	1	22.5	67.5	-2.05870632366954	1.29889400624438	0.2	0	0	0	138.097401208943	138.1973816799	0.0999804709572345	0.200027501676232
29919.75	100	113	0	113	1	2	90	2	1	0	2	67.5	22.5	-0.166548817291453	0.854368367349434	0.2	0	0	0	138.39742771117	138.497404524824	0.099976813653484	0.200046031270176
29994.75	100	114	0	114	1	2	90	2	1	0	2	157.5	112.5	1.41493104815068	-0.598801956393724	0.2	0	0	0	138.697425443679	138.797414204106	0.0999887604266405	0.200020918855444
30069.75	100	115	0	115	1	2	90	2	1	0	1	112.5	67.5	0.354846816599372	-0.957857901760207	0.2	0	0	0	138.997431953438	139.097420957638	0.0999890042003244	0.200017749331892
30144.75	100	116	0	116	1	2	90	2	1	0	2	157.5	22.5	-1.09338639171677	-2.79985939836169	0.2	0	0	0	139.297450165963	139.397426248295	0.0999760823324323	0.20002920832485
30219.75	100	117	0	117	1	2	90	2	1	0	2	157.5	22.5	0.11528836206138	-2.32591845190367	0.2	0	0	0	139.597450824222	139.697437390219	0.0999865659978241	0.200024575926363
30294.75	100	118	0	118	1	2	90	2	1	0	2	157.5	112.5	0.348351573650056	-2.69722809782999	0.2	0	0	0	139.897460991051	139.997448532376	0.0999875413253903	0.200023600831628
30369.75	100	119	0	119	1	2	90	2	1	0	1	22.5	67.5	1.78613664045193	1.51355147068124	0.2	0	0	0	140.197469939012	140.297453091713	0.0999831527005881	0.200021406635642
30444.75	100	120	0	120	1	2	90	2	1	0	1	22.5	157.5	-2.47488752308272	-1.53564896246536	0.2	0	0	0	140.497480593389	140.597461795667	0.0999812022782862	0.200027501676232
30519.75	100	121	0	121	1	2	90	2	1	0	1	112.5	67.5	0.378851780614426	-2.11588451594107	0.2	0	0	0	140.797484664945	140.897471962497	0.0999872975517064	0.200022869277745
30594.75	100	122	0	122	1	2	90	2	1	0	1	112.5	157.5	-1.58025678669428	-2.61075854271239	0.2	0	0	0	141.097494344227	141.197473596083	0.0999792518559843	0.200022381730378
30669.75	100	123	0	123	1	2	90	2	1	0	2	67.5	112.5	-1.40167138513826	2.14425625256081	0.2	0	0	0	141.397500853986	141.49748132471	0.0999804707244039	0.200027257902548
30744.75	100	124	0	124	1	2	90	2	1	0	1	112.5	157.5	1.71066693541705	2.32815779421819	0.2	0	0	0	141.697510777041	141.797492466867	0.099981689825654	0.200029452331364
30819.75	100	125	0	125	1	2	90	2	1	0	2	67.5	112.5	0.0484684398892123	1.07155514365776	0.2	0	0	0	141.997516555246	142.097497757524	0.0999812022782862	0.200024088378996
30894.75	100	126	0	126	1	2	90	2	1	0	2	157.5	112.5	0.387857175261179	-1.37015359659586	0.2	0	0	0	142.297527209856	142.397505730158	0.099978520302102	0.200029452331364
30969.75	100	127	0	127	1	2	90	2	1	0	2	67.5	22.5	1.63358509348904	-1.61972390551934	0.2	0	0	0	142.597534694709	142.69751540944	0.0999807147309184	0.200028964551166
31044.75	100	128	0	128	1	2	90	2	1	0	1	22.5	157.5	2.59173876925483	-1.30025183886483	0.2	0	0	0	142.897541204467	142.997523138067	0.0999819335993379	0.200025795027614
31119.75	100	129	0	129	1	2	90	2	1	0	2	67.5	22.5	-0.356580859633075	-0.254764670311669	0.2	0	0	0	143.197548933327	143.2975311107	0.0999821773730218	0.200025795260444
31195	100	130	0	130	1	2	90	2	1	0	1	22.5	157.5	0.707033549561117	-2.15178400065812	0.2	0	0	0	143.497560806805	143.597539814655	0.0999790078494698	0.200029696105048
31270	100	131	0	131	1	2	90	2	1	0	1	112.5	157.5	0.0348913501732415	-0.340394025556461	0.2	0	0	0	143.797568047885	143.897550713038	0.0999826651532203	0.200028233230114
31345	100	132	0	132	1	2	90	2	1	3	2	67.5	22.5	0.0764127849192682	-1.48758768281491	0.2	0	0	0	144.097575776745	144.197571119992	0.0999953432474285	0.200025063706562
31420	100	133	0	133	1	2	90	2	1	3	1	22.5	157.5	1.21096460344902	2.90149036147737	0.2	0	0	0	144.397586431121	144.4975676334	0.0999812022782862	0.200015311129391
31495	100	134	0	134	1	2	90	2	1	3	1	112.5	67.5	-0.299420217866403	2.96957787653184	0.2	0	0	0	144.697602693224	144.797571217408	0.099968524184078	0.200035059824586
31570	100	135	0	135	1	2	90	2	1	3	2	67.5	112.5	0.20913857234049	0.295770732623293	0.2	0	0	0	144.997596281115	145.097578702495	0.0999824213795364	0.200025063706562
32878.25	100	136	1	0	2	1	0	2	1	3	1	112.5	157.5	3.08476533335691	-2.33448055590584	0.166666666666667	0	0	0	150.231077631237	150.331059564836	0.0999819335993379	-1
32940.75	100	137	1	1	2	1	0	2	1	3	1	22.5	157.5	-2.49861909152125	-0.436059301078464	0.15	0	0	0	150.481098294025	150.581063161138	0.0999648671131581	0.150038729188964
33024	100	138	1	2	2	1	0	2	1	3	1	112.5	67.5	-0.158570260401532	-2.56534197534863	0.233333333333333	0	0	0	150.814420656068	150.914405515417	0.0999848593492061	0.233357494929805
33115.75	100	139	1	3	2	1	0	2	1	3	2	67.5	22.5	2.00498143537192	-0.364631254346367	0.266666666666667	0	0	0	151.181101049064	151.281081520021	0.0999804709572345	0.266695533646271
33190.75	100	140	1	4	2	1	0	2	1	0	1	22.5	67.5	2.13977874331324	0.063845005863211	0.2	0	0	0	151.481112678768	151.581089004874	0.0999763261061162	0.200031158747151
33245	100	141	1	5	2	1	0	2	1	0	1	112.5	67.5	2.60359839148243	-2.88544735253833	0.116666666666667	0	0	0	151.697781893425	151.797765046125	0.0999831527005881	0.11669288855046
33307.5	100	142	1	6	2	1	0	2	1	0	1	22.5	67.5	-2.88799157370163	0.85725909303178	0.15	0	0	0	151.947786708595	152.047765472671	0.0999787640757859	0.150021662469953
33403.25	100	143	1	7	2	1	0	2	1	0	2	67.5	112.5	-1.29636271503138	-2.62485703501969	0.283333333333333	0	0	0	152.331129782135	152.431112934835	0.0999831527005881	0.28336430946365
33474	100	144	1	8	2	1	0	2	1	0	1	22.5	157.5	-2.39253248346817	1.46699951836144	0.183333333333333	0	0	0	152.614472392481	152.714454813628	0.0999824211467057	0.183359457645565
33528.25	100	145	1	9	2	1	0	2	1	0	2	67.5	22.5	-1.95046923011106	1.7444389784824	0.116666666666667	1	0	0	152.831145751523	152.931125247153	0.0999794956296682	0.116690937895328
33628.25	100	146	1	10	2	1	0	2	1	0	2	157.5	112.5	2.97172786721883	0.0721418543640757	0.3	0	0	0	153.231154431123	153.331139046932	0.0999846158083528	0.300029183970764
33728.25	100	147	1	11	2	1	0	2	1	0	2	157.5	22.5	0.522721845271994	-2.80063603628745	0.3	0	0	0	153.631165548926	153.7311489454	0.099983396474272	0.30002650199458
33807.5	100	148	1	12	2	1	0	2	1	0	1	22.5	67.5	2.70286137171862	0.0246556184726425	0.216666666666667	0	0	0	153.947844247567	154.047822280321	0.0999780327547342	0.216695302166045
33899	100	149	1	13	2	1	0	2	1	0	1	22.5	157.5	-0.802758834014581	-0.767411730605799	0.266666666666667	0	0	0	154.314516351325	154.414499260252	0.0999829089269042	0.266694071004167
33995	100	150	1	14	2	1	0	2	1	0	1	112.5	157.5	2.30044585041602	2.83288706182859	0.283333333333333	0	0	0	154.697861619061	154.797844284214	0.0999826651532203	0.283362358808517
34065.75	100	151	1	15	2	1	0	2	1	0	2	67.5	22.5	-0.319727061206188	-2.28591258070405	0.183333333333333	0	0	0	154.981205204502	155.081183725037	0.0999785205349326	0.183360920287669
34115.75	100	152	1	16	2	1	0	2	1	0	2	157.5	112.5	-1.50828980353139	2.24353767653124	0.1	0	0	0	155.181203449145	155.281189771369	0.0999863222241402	0.100019724108279
34170	100	153	1	17	2	1	0	2	1	0	1	112.5	157.5	1.74531981640835	3.11724017557077	0.116666666666667	0	0	0	155.397885829443	155.497860448668	0.0999746192246675	0.116696058074012
34224	100	154	1	18	2	1	0	2	1	0	1	22.5	157.5	2.80042878215048	1.45822923688014	0.116666666666667	0	0	0	155.614555775188	155.71453722124	0.0999814460519701	0.11669532652013
34315.75	100	155	1	19	2	1	0	2	1	0	1	22.5	67.5	-2.47695691998627	1.97913707416747	0.266666666666667	1	0	0	155.981229097815	156.081208593445	0.0999794956296682	0.266691876575351
34399	100	156	1	20	2	1	0	2	1	0	1	22.5	157.5	0.604109830421633	-1.92449377227201	0.233333333333333	0	0	0	156.314571452327	156.414550947724	0.0999794953968376	0.233362858882174
34461.5	100	157	1	21	2	1	0	2	1	0	1	112.5	157.5	0.753655385370412	3.02678686332845	0.15	0	0	0	156.564579437021	156.664566003019	0.0999865659978241	0.150028489297256
34557.5	100	158	1	22	2	1	0	2	1	0	1	22.5	157.5	-1.77408613651244	-0.0510825111154802	0.283333333333333	0	0	0	156.94792202278	157.047897861339	0.0999758385587484	0.283356019761413
34620	100	159	1	23	2	1	0	2	1	0	2	157.5	112.5	-0.824928487837471	2.8691492678559	0.15	0	0	0	157.197927325731	157.297913160408	0.0999858346767724	0.150029464391991
34690.75	100	160	1	24	2	1	0	2	1	0	2	157.5	22.5	-2.25334198447657	2.61406410372791	0.183333333333333	0	0	0	157.481272374047	157.581253820332	0.0999814462848008	0.183359213639051
34749.25	100	161	1	25	2	1	0	2	1	0	2	67.5	112.5	-1.85997089880245	-2.10416639556596	0.133333333333333	0	0	0	157.714613533812	157.814589616144	0.0999760823324323	0.133359713479877
34828.25	100	162	1	26	2	1	0	2	1	0	2	67.5	22.5	-1.53992280823333	1.81195454381452	0.216666666666667	0	0	0	158.031268826686	158.131287575699	0.100018749013543	0.21667921054177
34895	100	163	1	27	2	1	0	2	1	0	1	22.5	67.5	0.624695452926885	2.70543578667971	0.166666666666667	0	0	0	158.297962166136	158.397943124641	0.0999809585046023	0.166674590436742
34945	100	164	1	28	2	1	0	2	1	0	1	112.5	157.5	0.952799945400007	-2.72994216648764	0.1	0	0	0	158.497966018273	158.597942100605	0.0999760823324323	0.100022893631831
35032.5	100	165	1	29	2	1	0	2	1	0	1	112.5	157.5	-1.86333018869942	-0.936839273946073	0.25	0	0	0	158.847970565315	158.947958350414	0.0999877850990742	0.25002846471034
35115.75	100	166	1	30	2	1	0	2	1	0	1	112.5	157.5	-3.07009103121519	1.60962494641529	0.233333333333333	0	0	0	159.181321209297	159.2813009487	0.0999797394033521	0.233362858882174
35199.25	100	167	1	31	2	1	0	2	1	0	2	157.5	22.5	-1.08542508729176	-2.14402734896278	0.233333333333333	0	0	0	159.514659418724	159.614646228729	0.0999868100043386	0.233358470024541
35265.75	100	168	1	32	2	1	0	2	1	0	2	67.5	22.5	1.1204159708845	2.49151696916849	0.166666666666667	0	0	0	159.781331546837	159.881312992889	0.0999814460519701	0.166685318108648
35353.25	100	169	1	33	2	1	0	2	1	0	2	157.5	22.5	-1.97829168397591	-1.41376324042071	0.25	0	0	0	160.131346089998	160.231369227404	0.100023137405515	0.250033097108826
35403.25	100	170	1	34	2	1	0	2	1	0	1	22.5	157.5	-1.18000900620046	1.983140757789	0.1	0	0	0	160.331346285064	160.431329193991	0.0999829089269042	0.0999770576599985
35453.25	100	171	1	35	2	1	0	2	1	0	1	22.5	67.5	-1.86354392844029	-2.2395013184014	0.1	0	0	0	160.531351356301	160.631368398434	0.100017042132095	0.100022162310779
35545	100	172	1	36	2	1	0	2	1	0	2	157.5	22.5	1.85530629652091	0.0139356857330943	0.266666666666667	0	0	0	160.898030530429	160.998016121099	0.0999855906702578	0.266662131994963
35632.5	100	173	1	37	2	1	0	2	1	0	1	112.5	67.5	0.301874596099421	2.63835859398008	0.25	0	0	0	161.248033614596	161.348020424368	0.099986809771508	0.25001749349758
35707.5	100	174	1	38	2	1	0	2	1	0	2	67.5	112.5	-2.74404874261175	-1.83265849483532	0.2	0	0	0	161.548047926277	161.648033273173	0.0999853468965739	0.200027501909062
35778.25	100	175	1	39	2	1	0	2	1	0	1	112.5	157.5	-2.50455452274004	-1.48994640992176	0.183333333333333	0	0	0	161.831389073515	161.931372713996	0.0999836404807866	0.183355800341815
35853.25	100	176	1	40	2	1	0	2	1	3	1	112.5	67.5	-0.657870156397188	0.037742923051522	0.2	0	0	0	162.131401191	162.231380930403	0.0999797394033521	0.200028477003798
35911.75	100	177	1	41	2	1	0	2	1	3	2	67.5	22.5	0.315023896970307	-1.13676948764284	0.133333333333333	0	0	0	162.364746739157	162.464718920412	0.0999721812549978	0.133365808753297
35974.25	100	178	1	42	2	1	0	2	1	3	1	22.5	157.5	0.874505956411868	-2.91016373228781	0.15	0	0	0	162.614742533304	162.714729099534	0.0999865662306547	0.150023612892255
36074.25	100	179	1	43	2	1	0	2	1	1	-1	0	45	-2.56886398686849	-1.99744730733684	0.3	1	-0.107800907921046	1	163.014778519748	163.114736560034	0.0999580402858555	0.300049420213327
36128.25	100	180	1	44	2	1	0	2	1	3	2	157.5	22.5	-2.11310233401372	-2.12855878965288	0.116666666666667	0	0	0	163.231431155233	163.331410894636	0.0999797394033521	0.116694595199078
36178.25	100	181	1	45	2	1	0	2	1	3	2	67.5	112.5	1.22777140188933	2.74200569846349	0.1	0	0	0	163.431455243612	163.531436933437	0.099981689825654	0.100044348975644
36270	100	182	1	46	2	1	0	2	1	3	1	112.5	157.5	-0.566812923681109	1.12896245327794	0.266666666666667	0	0	0	163.798107842449	163.898093189346	0.0999853468965739	0.266670909011737
36336.75	100	183	1	47	2	1	0	2	1	3	1	22.5	67.5	-1.36155875069167	2.48445380234797	0.166666666666667	0	0	0	164.064782164758	164.164770924952	0.0999887601938099	0.166688975412399
36415.75	100	184	1	48	2	1	0	2	1	0	2	157.5	112.5	-1.2089114765698	-2.08135512069753	0.216666666666667	0	0	0	164.38145866897	164.4814393837	0.0999807147309184	0.21668774401769
36474.25	100	185	1	49	2	1	0	2	1	0	1	22.5	157.5	2.84746944174742	1.78988669579092	0.133333333333333	0	0	0	164.614800316282	164.714782006107	0.099981689825654	0.133360932581127
36524.25	100	186	1	50	2	1	0	2	1	0	1	112.5	67.5	-1.17896503661571	-2.41853185128718	0.1	0	0	0	164.814799048472	164.914786589798	0.0999875413253903	0.100017042364925
36574.25	100	187	1	51	2	1	0	2	1	0	2	157.5	22.5	0.417957890030783	0.193027197648422	0.1	1	1.89218348823488	1	165.014808508335	165.114792392589	0.0999838842544705	0.100021918537095
36649.25	100	188	1	52	2	1	0	2	1	0	1	112.5	157.5	-0.897353743184476	0.856515496594709	0.2	0	0	0	165.314819650492	165.41480621649	0.0999865659978241	0.200027257902548
36740.75	100	189	1	53	2	1	0	2	1	0	1	112.5	157.5	-0.524989147692674	-0.881033730941332	0.266666666666667	0	0	0	165.681495898869	165.78147612582	0.09998022695072	0.266689682379365
36790.75	100	190	1	54	2	1	0	2	1	0	2	67.5	22.5	2.28862746606601	2.34332715210916	0.1	0	0	0	165.88150121388	165.981479734182	0.099978520302102	0.100025088060647
36865.75	100	191	1	55	2	1	0	2	1	0	1	22.5	157.5	3.12035772131984	0.346706927859417	0.2	0	0	0	166.181503578788	166.281486487715	0.0999829089269042	0.200023844605312
36953.25	100	192	1	56	2	1	0	2	1	0	2	67.5	22.5	-0.855886863011491	0.502929312419234	0.25	0	0	0	166.531515927752	166.631504688179	0.0999887604266405	0.250029440037906
37053.25	100	193	1	57	2	1	0	2	1	0	1	112.5	157.5	-1.90253851967527	2.40353788493682	0.3	0	0	0	166.931523632025	167.031509222928	0.0999855909030885	0.300018943846226
37149.25	100	194	1	58	2	1	0	2	1	0	2	157.5	112.5	1.43276541385643	-2.48431618838881	0.283333333333333	0	0	0	167.314873776166	167.414849858498	0.0999760823324323	0.283364553237334
37220	100	195	1	59	2	1	0	2	1	0	1	22.5	67.5	-1.86191407804198	3.09732515209618	0.183333333333333	0	0	0	167.598210535012	167.698193443939	0.0999829089269042	0.183360676513985
37311.75	100	196	1	60	2	1	0	2	1	0	2	157.5	112.5	-3.10466890863805	0.815408013435371	0.266666666666667	0	0	0	167.964887027163	168.064870911418	0.0999838842544705	0.266693583223969
37407.5	100	197	1	61	2	1	0	2	1	0	2	67.5	22.5	2.52351936917144	-0.664406564542757	0.283333333333333	0	0	0	168.348244485445	168.448216910707	0.0999724252615124	0.283373574027792
37474.25	100	198	1	62	2	1	0	2	1	0	1	112.5	67.5	-0.479062690963341	1.87031957527218	0.166666666666667	0	0	0	168.61490027816	168.714895377634	0.0999950994737446	0.166683367453516
37574.25	100	199	1	63	2	1	0	2	1	0	1	22.5	67.5	2.01293516224226	-1.47809346097095	0.3	0	0	0	169.014918710338	169.114898449741	0.0999797394033521	0.300023332703859
37649.25	100	200	1	64	2	1	0	2	1	0	2	157.5	22.5	-0.589251671935611	3.08189138196015	0.2	0	0	0	169.314923025668	169.41491398029	0.0999909546226263	0.200024575926363
37732.5	100	201	1	65	2	1	0	2	1	0	1	112.5	67.5	2.4054417601665	0.48607043182243	0.233333333333333	0	0	0	169.648267330369	169.74824268138	0.0999753510113806	0.233353350078687
37790.75	100	202	1	66	2	1	0	2	1	0	1	112.5	67.5	-0.245633365622128	-0.878066447871173	0.133333333333333	0	0	0	169.881606051931	169.981585791335	0.0999797394033521	0.133363370550796
37853.25	100	203	1	67	2	1	0	2	1	0	2	157.5	22.5	-2.12029494128208	1.6627770824752	0.15	0	0	0	170.131620131899	170.231597433332	0.0999773014336824	0.150034340564162
37932.5	100	204	1	68	2	1	0	2	1	0	1	22.5	157.5	-3.04838552922186	-0.362655227665625	0.216666666666667	0	0	0	170.448292247718	170.548270036699	0.0999777889810503	0.216694814385846
38007.5	100	205	1	69	2	1	0	2	1	0	2	67.5	22.5	0.323884732695352	-2.0310015823102	0.2	0	0	0	170.748289005132	170.848282641731	0.0999936365988106	0.200018968433142
38074.25	100	206	1	70	2	1	0	2	1	0	2	157.5	22.5	0.883834892428544	1.53055076967317	0.166666666666667	1	0	0	171.014969666488	171.114950868767	0.0999812022782862	0.166687024757266
38128.25	100	207	1	71	2	1	0	2	1	0	1	22.5	67.5	2.57481485906493	-2.83816849660732	0.116666666666667	0	0	0	171.23164278199	171.331624228042	0.0999814460519701	0.116691913222894
38203.25	100	208	1	72	2	1	0	2	1	3	2	67.5	112.5	-2.58219367884051	2.00951532442468	0.2	0	0	0	171.531652217265	171.631637076847	0.0999848595820367	0.200027989223599
38282.5	100	209	1	73	2	1	0	2	1	3	1	22.5	157.5	0.767771284503465	-1.54784698971939	0.216666666666667	0	0	0	171.848324576858	171.94830894866	0.0999843718018383	0.216687500011176
38378.5	100	210	1	74	2	1	0	2	1	3	1	112.5	157.5	-0.811513440234735	0.874857170599158	0.283333333333333	0	0	0	172.231674720999	172.331652753754	0.0999780327547342	0.283365772338584
38436.75	100	211	1	75	2	1	0	2	1	1	-1	0	45	0.0280422516749059	3.04140850644633	0.133333333333333	0	0	0	172.465008078609	172.564992206637	0.0999841280281544	0.133355324855074
38499.25	100	212	1	76	2	1	0	2	1	3	2	67.5	22.5	-2.22495869115532	0.539539164565794	0.15	0	0	0	172.715018257732	172.81499946001	0.0999812022782862	0.150026051094756
38586.75	100	213	1	77	2	1	0	2	1	3	2	157.5	22.5	-1.36159762948324	1.0285482042227	0.25	0	0	0	173.065029387595	173.165008151904	0.0999787643086165	0.250029927585274
38670	100	214	1	78	2	1	0	2	1	3	2	157.5	112.5	0.132945134494282	-1.17716220717064	0.233333333333333	0	0	0	173.398371741874	173.49835099373	0.0999792518559843	0.233363589970395
38770	100	215	1	79	2	1	0	2	1	3	1	112.5	67.5	2.67349402821261	-3.13033966549535	0.3	0	0	0	173.79837944638	173.898362355307	0.0999829089269042	0.300028452649713
38841	100	216	1	80	2	1	0	2	1	0	2	157.5	112.5	-2.45802705279844	-2.92926401098868	0.183333333333333	0	0	0	174.08169572521	174.181705696974	0.100009971763939	0.183333369903266
38891	100	217	1	81	2	1	0	2	1	0	2	67.5	112.5	-0.0596296291555212	-2.20310620872157	0.1	0	0	0	174.281724933535	174.381705160486	0.09998022695072	0.100019236560911
38945	100	218	1	82	2	1	0	2	1	0	2	67.5	112.5	1.91520042360936	0.729176542210187	0.116666666666667	1	1.92554737091996	1	174.498394879512	174.598381689284	0.099986809771508	0.116689719026908
39011.75	100	219	1	83	2	1	0	2	1	0	1	112.5	157.5	2.93346888350899	-0.425793405594772	0.166666666666667	0	0	0	174.765074565541	174.865057962015	0.099983396474272	0.166692876257002
39111.75	100	220	1	84	2	1	0	2	1	0	1	22.5	157.5	-1.90165815145033	0.0796581300962806	0.3	0	0	0	175.165089096641	175.265066397842	0.0999773012008518	0.300031134625897
39170	100	221	1	85	2	1	0	2	1	0	1	22.5	67.5	-2.34582500676975	2.48526651400813	0.133333333333333	0	0	0	175.398425136227	175.498403656529	0.099978520302102	0.133358738385141
39249.25	100	222	1	86	2	1	0	2	1	0	2	157.5	22.5	2.78392678707556	-2.31206583605147	0.216666666666667	0	0	0	175.715098471148	175.815076747676	0.0999782765284181	0.216694814618677
39349.25	100	223	1	87	2	1	0	2	1	0	1	112.5	67.5	2.98794730245361	-1.71367821955491	0.3	1	0	0	176.1151054441	176.215092253871	0.099986809771508	0.300028696423396
39411.75	100	224	1	88	2	1	0	2	1	0	1	112.5	67.5	-0.108469860281659	0.962008611253909	0.15	0	0	0	176.36511903652	176.465097556822	0.099978520302102	0.150026782648638
39470	100	225	1	89	2	1	0	2	1	0	2	157.5	22.5	-2.80623047584998	-3.00154345395798	0.133333333333333	0	0	0	176.598454832332	176.69843603461	0.0999812022782862	0.133357275510207
39532.5	100	226	1	90	2	1	0	2	1	0	2	67.5	22.5	2.67769134238169	-3.12515902457257	0.15	0	0	0	176.848465499002	176.94843670493	0.0999712059274316	0.150029464391991
39595	100	227	1	91	2	1	0	2	1	0	1	22.5	157.5	-0.704375342695041	-0.911297019520278	0.15	0	0	0	177.098468119744	177.198448590701	0.0999804709572345	0.150031414814293
39695	100	228	1	92	2	1	0	2	1	0	2	67.5	22.5	2.53979448755631	-2.47329640001897	0.3	0	0	0	177.49848167575	177.598454100778	0.0999724250286818	0.300033085048199
39774.25	100	229	1	93	2	1	0	2	1	0	1	112.5	157.5	0.75613716566727	-0.897543284935017	0.216666666666667	0	0	0	177.81514501432	177.915159618482	0.100014604162425	0.216690913541242
39866	100	230	1	94	2	1	0	2	1	0	1	112.5	67.5	2.03924394395387	-1.73253203620925	0.266666666666667	0	0	0	178.18184564379	178.281829284038	0.0999836402479559	0.266686025308445
39957.5	100	231	1	95	2	1	0	2	1	0	2	67.5	22.5	-2.13454790587365	0.525217237423606	0.266666666666667	0	0	0	178.548531888286	178.648506263969	0.0999743756838143	0.266702604247257
40041	100	232	1	96	2	1	0	2	1	0	2	67.5	22.5	1.79589503339764	0.559779078825471	0.233333333333333	0	0	0	178.881858394947	178.981848862022	0.0999904670752585	0.233352130977437
40107.5	100	233	1	97	2	1	0	2	1	0	2	67.5	112.5	-1.74625372993048	-1.85866441388367	0.166666666666667	0	0	0	179.148541982053	179.248542932793	0.10000095074065	0.166693120030686
40203.5	100	234	1	98	2	1	0	2	1	0	1	22.5	67.5	-0.600141257881669	0.778672383646525	0.283333333333333	0	0	0	179.531879447866	179.631866257871	0.0999868100043386	0.283336515072733
40286.75	100	235	1	99	2	1	0	2	1	0	1	22.5	67.5	2.17618989645311	-0.157696569406848	0.233333333333333	0	0	0	179.86522862874	179.965217145393	0.0999885166529566	0.233362370869145
40374.25	100	236	1	100	2	1	0	2	1	0	2	157.5	112.5	2.06834733367974	-2.29494161801232	0.25	0	0	0	180.215207332047	180.315188290551	0.0999809585046023	0.249990186654031
40428.5	100	237	1	101	2	1	0	2	1	0	2	157.5	112.5	-1.9919862382683	2.74318162821661	0.116666666666667	0	0	0	180.43187947222	180.531860918272	0.0999814460519701	0.116691181669012
40491	100	238	1	102	2	1	0	2	1	0	2	67.5	112.5	-1.77099823223808	-1.61108243602953	0.15	0	0	0	180.681885018945	180.781867196551	0.0999821776058525	0.150024100672454
40586.75	100	239	1	103	2	1	0	2	1	0	1	112.5	67.5	-0.629917079394249	-2.20343089883051	0.283333333333333	0	0	0	181.065228336258	181.165212220512	0.0999838842544705	0.283361139707267
40645	100	240	1	104	2	1	0	2	1	0	2	67.5	22.5	0.112422008187179	-2.539634162222	0.133333333333333	0	0	0	181.29857242154	181.398556549568	0.0999841280281544	0.133360201027244
40745	100	241	1	105	2	1	0	2	1	0	2	67.5	112.5	-0.731511219734924	0.868399647904231	0.3	0	0	0	181.698582320241	181.798573274864	0.0999909546226263	0.300025770673528
40832.5	100	242	1	106	2	1	0	2	1	0	1	22.5	67.5	-2.36840458265208	2.33285622642313	0.25	0	0	0	182.048585160635	182.148570751539	0.0999855909030885	0.250011885771528
40911.75	100	243	1	107	2	1	0	2	1	0	2	67.5	112.5	-1.58927581571744	1.77283927655688	0.216666666666667	0	0	0	182.365278975572	182.465257983422	0.0999790078494698	0.216708224033937
40982.5	100	244	1	108	2	1	0	2	1	0	2	67.5	112.5	1.41297961820297	-0.616048153813304	0.183333333333333	0	0	0	182.648611589568	182.748595230049	0.0999836404807866	0.183353606145829
41057.5	100	245	1	109	2	1	0	2	1	0	1	112.5	67.5	2.49627824456725	-1.48132477355258	0.2	0	0	0	182.94862126885	183.048603202449	0.0999819335993379	0.200026038801298
41124.25	100	246	1	110	2	1	0	2	1	3	1	112.5	157.5	-2.88335981088908	-3.06936091865484	0.166666666666667	0	0	0	183.215304124402	183.315286302008	0.0999821776058525	0.166700921952724
41220	100	247	1	111	2	1	0	2	1	3	2	67.5	112.5	0.391714308094019	0.910731145234386	0.283333333333333	0	0	0	183.59864646662	183.698624499375	0.0999780327547342	0.283360164612532
41320	100	248	1	112	2	1	0	2	1	3	2	67.5	22.5	1.61767677355996	0.391638332330291	0.3	0	0	0	183.998654414667	184.09864000557	0.0999855909030885	0.300029915291816
41382.5	100	249	1	113	2	1	0	2	1	2	-1	135	0	-2.90202295743372	-0.94038735426804	0.15	0	0	0	184.248663130915	184.348646039842	0.0999829089269042	0.150023125344887
41461.75	100	250	1	114	2	1	0	2	1	3	1	112.5	67.5	2.12500003478025	0.914857545950922	0.216666666666667	0	0	0	184.565361090703	184.66532327584	0.0999621851369739	0.216715050861239
41549.25	100	251	1	115	2	1	0	2	1	3	1	22.5	157.5	-2.40186686800426	-0.353402545991063	0.25	0	0	0	184.915346620604	185.01532831043	0.099981689825654	0.250023344764486
41603.5	100	252	1	116	2	1	0	2	1	3	2	157.5	112.5	0.625301158288107	2.74673919762722	0.116666666666667	0	0	0	185.132019004552	185.23200313258	0.0999841280281544	0.116690694121644
41678.5	100	253	1	117	2	1	0	2	1	3	2	157.5	22.5	0.314484967053115	1.4672643500293	0.2	0	0	0	185.43202502653	185.532021588879	0.0999965623486787	0.200021893950179
41761.75	100	254	1	118	2	1	0	2	1	0	2	67.5	112.5	0.798231057653758	-1.58023984147809	0.233333333333333	0	0	0	185.765367868589	185.865352971712	0.09998510312289	0.233346279710531
41841	100	255	1	119	2	1	0	2	1	0	1	112.5	67.5	-1.21759244503643	2.53528707489035	0.216666666666667	0	0	0	186.082046811003	186.182027525734	0.0999807147309184	0.216693839291111
41928.5	100	256	1	120	2	1	0	2	1	0	2	67.5	112.5	-0.502203283874744	-2.86512004633287	0.25	0	0	0	186.432054283796	186.532046213746	0.0999919299501926	0.250026758061722
41995.25	100	257	1	121	2	1	0	2	1	0	2	157.5	112.5	0.519146054745146	0.198092497739913	0.166666666666667	0	0	0	186.698728362331	186.798713709228	0.0999853468965739	0.166682148585096
42082.75	100	258	1	122	2	1	0	2	1	0	1	22.5	157.5	-0.46659033005481	-0.590690265415334	0.25	0	0	0	187.04873217782	187.148717768723	0.0999855909030885	0.250018468592316
42157.75	100	259	1	123	2	1	0	2	1	0	2	157.5	112.5	0.998038168605184	-1.64827550368902	0.2	0	0	0	187.34874941525	187.448722084053	0.0999726688023657	0.20003164652735
42216	100	260	1	124	2	1	0	2	1	0	2	157.5	112.5	-0.33433209095177	-2.77478544711737	0.133333333333333	0	0	0	187.582080090884	187.682053735247	0.0999736443627626	0.133358006831259
42286.75	100	261	1	125	2	1	0	2	1	0	1	112.5	67.5	-0.387342077984108	1.75220594455642	0.183333333333333	0	0	0	187.865411486011	187.965400246438	0.0999887604266405	0.183357750764117
42370.25	100	262	1	126	2	1	0	2	1	0	2	157.5	112.5	-2.9947214363127	-3.0639947218345	0.233333333333333	0	0	0	188.198758472688	188.298753084615	0.0999946119263768	0.233358226250857
42424.25	100	263	1	127	2	1	0	2	1	0	2	157.5	22.5	0.747019712383426	0.319958378273622	0.116666666666667	0	0	0	188.415440365206	188.515439121751	0.0999987565446645	0.116687280591577
42516	100	264	1	128	2	1	0	2	1	0	2	67.5	112.5	-0.0659633991402453	2.77038588409179	0.266666666666667	0	0	0	188.782114419388	188.882103423588	0.0999890042003244	0.266675297636539
42611.75	100	265	1	129	2	1	0	2	1	0	2	157.5	22.5	-1.66346750826821	-2.24770558961271	0.283333333333333	0	0	0	189.16545993113	189.265444302931	0.0999843718018383	0.283356507541612
42670.25	100	266	1	130	2	1	0	2	1	0	1	112.5	157.5	1.65602895910683	-1.88798240859653	0.133333333333333	0	0	0	189.398801334435	189.498783999588	0.0999826651532203	0.133357031503692
42736.75	100	267	1	131	2	1	0	2	1	0	1	22.5	157.5	1.75913412394014	0.679105327833893	0.166666666666667	0	0	0	189.665475900518	189.765470268438	0.0999943679198623	0.166691900929436
42832.75	100	268	1	132	2	1	0	2	1	3	2	157.5	22.5	-0.262077685381964	0.0436569231781547	0.283333333333333	0	0	0	190.04884213605	190.148821875453	0.0999797394033521	0.283371867612004
42886.75	100	269	1	133	2	1	0	2	1	3	2	157.5	112.5	-2.01332713529445	0.889510340874296	0.116666666666667	0	0	0	190.265504523879	190.365500842221	0.0999963183421642	0.116682648425922
42957.75	100	270	1	134	2	1	0	2	1	3	1	22.5	67.5	-0.168270951288519	1.96902966799603	0.183333333333333	0	0	0	190.548858349212	190.648841014365	0.0999826651532203	0.183357506990433
43045.25	100	271	1	135	2	1	0	2	1	3	2	67.5	112.5	-2.46881385311598	-2.04430047232456	0.25	0	0	0	190.898860945832	190.99885092536	0.0999899795278907	0.25001993146725
45349.25	100	272	2	0	2	1	90	1	2	3	2	67.5	112.5	-2.24455556798557	0.457676166364553	0.216666666666667	0	0	0	200.115752270911	200.215732741868	0.0999804709572345	-1
45420.25	100	273	2	1	2	1	90	1	2	3	2	157.5	112.5	-1.74891899744009	1.54929856522997	0.183333333333333	0	0	0	200.399121212773	200.49907705863	0.0999558458570391	0.183388470904902
45516	100	274	2	2	2	1	90	1	2	3	1	22.5	157.5	-2.78517018674898	-2.10912054952179	0.283333333333333	0	0	0	200.782444293844	200.882423057919	0.0999787640757859	0.283367235213518
45578.5	100	275	2	3	2	1	90	1	2	3	1	112.5	157.5	1.34287015335882	2.04840532809616	0.15	0	0	0	201.032450815663	201.132433480816	0.0999826651532203	0.150027757743374
45628.5	100	276	2	4	2	1	90	1	2	0	1	112.5	157.5	0.335359288496379	2.74940227578834	0.1	0	0	0	201.232456374681	201.332439527381	0.0999831527005881	0.100022893864661
45728.5	100	277	2	5	2	1	90	1	2	0	2	67.5	112.5	-2.23234691473485	-0.699037371951402	0.3	0	0	0	201.632461640751	201.732456252677	0.0999946119263768	0.300022113369778
45807.75	100	278	2	6	2	1	90	1	2	0	1	22.5	67.5	2.32932221350455	-0.499613273372788	0.216666666666667	0	0	0	201.949134488124	202.049118128372	0.0999836402479559	0.216678235447034
45891	100	279	2	7	2	1	90	1	2	0	2	157.5	22.5	-1.46777227934745	2.13454070799438	0.233333333333333	0	0	0	202.282490495825	202.382466090377	0.0999755945522338	0.23337236745283
45987	100	280	2	8	2	1	90	1	2	0	1	112.5	157.5	-0.554292111728855	0.160946456892296	0.283333333333333	0	0	0	202.665821866365	202.765811845893	0.0999899795278907	0.283355775987729
46066	100	281	2	9	2	1	90	1	2	0	2	67.5	22.5	-2.16338577166535	-0.655754224154036	0.216666666666667	0	0	0	202.982505441178	203.082488837885	0.0999833967071027	0.216693595284596
46166	100	282	2	10	2	1	90	1	2	0	2	157.5	22.5	-1.43817629252641	2.77271900926304	0.3	0	0	0	203.382517534308	203.482497761259	0.09998022695072	0.300028696423396
46216	100	283	2	11	2	1	90	1	2	0	1	112.5	67.5	2.13353949593152	1.73985883443427	0.1	0	0	0	203.582519436022	203.682498931419	0.0999794953968376	0.100021674763411
46291	100	284	2	12	2	1	90	1	2	0	1	112.5	67.5	-1.03981151714882	-1.01442932219258	0.2	0	0	0	203.882530577946	203.982538111741	0.100007533794269	0.20003164652735
46382.75	100	285	2	13	2	1	90	1	2	0	2	67.5	112.5	-2.08728761778502	-1.63125885560161	0.266666666666667	0	0	0	204.249228525441	204.349205095321	0.0999765698798001	0.266690413700417
46437	100	286	2	14	2	1	90	1	2	0	1	22.5	67.5	-0.0565051003678003	-1.03620698477667	0.116666666666667	0	0	0	204.465885793325	204.56588235544	0.0999965621158481	0.11668069800362
46528.5	100	287	2	15	2	1	90	1	2	0	1	112.5	157.5	-1.14311967169947	-0.404750959284539	0.266666666666667	0	0	0	204.832556433976	204.932555922074	0.0999994880985469	0.266674078535289
46603.5	100	288	2	16	2	1	90	1	2	0	2	67.5	22.5	2.53318068267549	3.02360016798496	0.2	0	0	0	205.132565381937	205.23256535735	0.099999975413084	0.200009459862486
46670.25	100	289	2	17	2	1	90	1	2	0	2	67.5	112.5	-2.42425289625014	1.91246620367609	0.166666666666667	0	0	0	205.399236046942	205.499220662517	0.0999846155755222	0.166670689592138
46766	100	290	2	18	2	1	90	1	2	0	1	22.5	67.5	3.00726927168318	2.59351562989382	0.283333333333333	0	0	0	205.78258375288	205.882562029408	0.0999782765284181	0.2833630903624
46828.5	100	291	2	19	2	1	90	1	2	0	2	67.5	112.5	-2.78437518085303	1.97947479950311	0.15	0	0	0	206.032584667206	206.132564650383	0.099979983177036	0.15002263779752
46903.5	100	292	2	20	2	1	90	1	2	0	1	112.5	157.5	2.48209442729897	2.18422795788672	0.2	0	0	0	206.33259044541	206.432572135469	0.0999816900584847	0.200025795027614
46987	100	293	2	21	2	1	90	1	2	0	1	22.5	67.5	1.05733450108013	-2.80510813833674	0.233333333333333	0	0	0	206.665936700767	206.765923266765	0.0999865659978241	0.233364565297961
47049.5	100	294	2	22	2	1	90	1	2	0	1	112.5	67.5	-1.81484436732938	0.109167167143192	0.15	0	0	0	206.915940053063	207.015922961989	0.0999829089269042	0.150016786297783
47132.75	100	295	2	23	2	1	90	1	2	0	2	157.5	112.5	-0.14165218850433	2.87682543866342	0.233333333333333	0	0	0	207.249287283514	207.349263853393	0.0999765698798001	0.233364321524277
47220.25	100	296	2	24	2	1	90	1	2	0	2	67.5	112.5	-1.34313672883943	2.72899490650159	0.25	0	0	0	207.599287442164	207.699262061389	0.0999746192246675	0.250023588771001
47274.5	100	297	2	25	2	1	90	1	2	0	2	67.5	112.5	-1.52183057421625	-1.57529228973204	0.116666666666667	0	0	0	207.815954218386	207.915948342532	0.0999941241461784	0.116692156996578
47353.5	100	298	2	26	2	1	90	1	2	0	1	112.5	67.5	-1.87476533218707	-0.489233058976266	0.216666666666667	0	0	0	208.132638768526	208.232643132797	0.100004364270717	0.216690425993875
47420.25	100	299	2	27	2	1	90	1	2	0	2	157.5	22.5	-0.85275421529062	0.83371472005971	0.166666666666667	0	0	0	208.399329182226	208.499315748457	0.0999865662306547	0.1666860494297
47478.5	100	300	2	28	2	1	90	1	2	0	1	112.5	157.5	3.08517556950261	-0.851799050237275	0.133333333333333	0	0	0	208.632669366663	208.732661296614	0.0999919299501926	0.133353618206456
47566	100	301	2	29	2	1	90	1	2	0	2	67.5	22.5	3.12956429484166	0.193511582179652	0.25	0	0	0	208.982680740301	209.082665599883	0.0999848595820367	0.250019443687052
47666	100	302	2	30	2	1	90	1	2	0	2	67.5	22.5	2.67085497881847	-2.70639276704151	0.3	0	0	0	209.382692345651	209.482675254578	0.0999829089269042	0.300026745768264
47728.5	100	303	2	31	2	1	90	1	2	0	2	157.5	112.5	-2.5285746266994	-0.420718751888573	0.15	0	0	0	209.632699111477	209.732666172786	0.0999670613091439	0.15002385689877
47828.5	100	304	2	32	2	1	90	1	2	0	1	22.5	157.5	-1.32305897185458	0.0300000572662191	0.3	0	0	0	210.032708766172	210.132690943778	0.0999821776058525	0.300042593386024
47924.5	100	305	2	33	2	1	90	1	2	0	1	22.5	157.5	2.48939466352388	-3.01072687322979	0.283333333333333	0	0	0	210.416056715883	210.51604303834	0.0999863224569708	0.283365772105753
47978.5	100	306	2	34	2	1	90	1	2	0	1	112.5	67.5	-2.78042028358292	-2.26567453010351	0.116666666666667	0	0	0	210.632727880962	210.732716641389	0.0999887604266405	0.116684842621908
48045.25	100	307	2	35	2	1	90	1	2	3	1	112.5	67.5	1.42297128608939	2.95118810270825	0.166666666666667	0	0	0	210.899404153693	210.999375603627	0.0999714499339461	0.166687512304634
48116	100	308	2	36	2	1	90	1	2	3	1	112.5	157.5	-1.29732431278482	1.73780076075171	0.183333333333333	0	0	0	211.182727990672	211.282709924271	0.0999819335993379	0.183352387044579
48166	100	309	2	37	2	1	90	1	2	3	1	22.5	157.5	3.00732840289522	2.74534172166206	0.1	0	0	0	211.382730623707	211.482708168915	0.0999775452073663	0.100020699435845
48249.5	100	310	2	38	2	1	90	1	2	2	-1	45	90	-3.04088244988693	0.836992641286394	0.233333333333333	0	0	0	211.716075172415	211.816058081342	0.0999829089269042	0.233367003500462
48341	100	311	2	39	2	1	90	1	2	3	2	67.5	112.5	1.9290828708895	1.94319188353441	0.266666666666667	0	0	0	212.082748251269	212.182732866844	0.0999846155755222	0.266690169926733
48428.5	100	312	2	40	2	1	90	1	2	3	2	67.5	22.5	-0.999617330003616	2.4150865617819	0.25	0	0	0	212.432757918257	212.532742290059	0.0999843718018383	0.250025051413104
48487	100	313	2	41	2	1	90	1	2	3	1	22.5	67.5	-2.26104552856404	2.41677840041747	0.133333333333333	0	0	0	212.666099321796	212.766082474496	0.0999831527005881	0.133357031736523
48587	100	314	2	42	2	1	90	1	2	3	2	157.5	22.5	-3.12950989637379	-2.92561661008039	0.3	0	0	0	213.066108001396	213.16609432362	0.0999863222241402	0.300025526899844
48657.75	100	315	2	43	2	1	90	1	2	0	2	157.5	22.5	2.0875553530617	0.889537876769517	0.183333333333333	0	0	0	213.349446223117	213.449435227318	0.0999890042003244	0.183351899497211
48753.5	100	316	2	44	2	1	90	1	2	0	2	157.5	22.5	0.167048967003671	-1.4716979322537	0.283333333333333	0	0	0	213.732790515525	213.832773668459	0.0999831529334188	0.283355288207531
48845.25	100	317	2	45	2	1	90	1	2	0	1	22.5	157.5	-1.97404722078506	1.12116480946869	0.266666666666667	0	0	0	214.099472615402	214.199458693853	0.0999860784504563	0.266698946943507
48941.25	100	318	2	46	2	1	90	1	2	0	1	112.5	67.5	-0.406840137495211	-1.42356176164074	0.283333333333333	0	0	0	214.48281788337	214.582796647446	0.0999787640757859	0.283359189517796
49020.25	100	319	2	47	2	1	90	1	2	0	1	112.5	157.5	2.58855533525159	0.265492470561083	0.216666666666667	0	0	0	214.799489755183	214.899459498469	0.0999697432853281	0.216693107737228
49107.75	100	320	2	48	2	1	90	1	2	0	2	157.5	22.5	-1.77019373332048	2.66648138264173	0.25	0	0	0	215.149485037662	215.24946575216	0.0999807144980878	0.250025539193302
49207.75	100	321	2	49	2	1	90	1	2	0	1	112.5	157.5	0.448241478509256	0.761885118838079	0.3	0	0	0	215.549493473256	215.649476138409	0.0999826651532203	0.30002772109583
49282.75	100	322	2	50	2	1	90	1	2	0	1	22.5	157.5	-2.27404502328074	-1.56714492438526	0.2	0	0	0	215.849514367757	215.949506053934	0.0999916861765087	0.200038229348138
49353.75	100	323	2	51	2	1	90	1	2	0	1	112.5	67.5	-2.00980327174841	0.127580079845059	0.183333333333333	0	0	0	216.132859903853	216.232846469851	0.0999865659978241	0.183353849919513
49424.5	100	324	2	52	2	1	90	1	2	0	1	22.5	67.5	1.69926072150745	-0.416630022914735	0.183333333333333	0	0	0	216.416201538872	216.516187861096	0.0999863222241402	0.183355069020763
49503.75	100	325	2	53	2	1	90	1	2	0	2	157.5	112.5	1.32963693460531	2.83287377877474	0.216666666666667	0	0	0	216.732876336668	216.832857538946	0.0999812022782862	0.216688475571573
49599.5	100	326	2	54	2	1	90	1	2	0	2	157.5	112.5	-1.90561775344817	-1.33503333330243	0.283333333333333	0	0	0	217.116216728231	217.216203782009	0.0999870537780225	0.283359189284965
49670.25	100	327	2	55	2	1	90	1	2	0	2	67.5	112.5	-2.64354522097266	-1.22263407276433	0.183333333333333	0	0	0	217.399580549914	217.499541759957	0.0999612100422382	0.183376767905429
49732.75	100	328	2	56	2	1	90	1	2	0	2	67.5	22.5	-2.59231022238118	0.926896101925323	0.15	0	0	0	217.649558302248	217.749535359908	0.0999770576599985	0.150016542291269
49807.75	100	329	2	57	2	1	90	1	2	0	1	22.5	67.5	0.68207601533593	-2.3852148965499	0.2	0	0	0	217.949567250209	218.04954503919	0.0999777889810503	0.200031890301034
49891.25	100	330	2	58	2	1	90	1	2	0	2	67.5	22.5	-0.0283978960497686	0.592436270770369	0.233333333333333	0	0	0	218.282905459637	218.382884467719	0.0999790080823004	0.233360420446843
49945.25	100	331	2	59	2	1	90	1	2	0	1	112.5	157.5	-1.42070078321473	2.86566532775086	0.116666666666667	0	0	0	218.499587596161	218.599571723957	0.0999841277953237	0.116703128442168
50024.5	100	332	2	60	2	1	90	1	2	0	2	157.5	22.5	-1.84705597069715	0.0865752064359477	0.216666666666667	0	0	0	218.816266294802	218.916246765526	0.0999804707244039	0.216694570844993
50099.5	100	333	2	61	2	1	90	1	2	0	2	157.5	22.5	0.70643937995471	-1.45511330202965	0.2	0	0	0	219.116274023429	219.216258151457	0.0999841280281544	0.200027257902548
50195.25	100	334	2	62	2	1	90	1	2	0	2	67.5	22.5	1.30537952700679	-0.211006454343996	0.283333333333333	0	0	0	219.499615877867	219.599600981222	0.0999851033557206	0.283357726410031
50282.75	100	335	2	63	2	1	90	1	2	0	1	22.5	67.5	1.95773821457103	0.21256953068469	0.25	0	0	0	219.849619449815	219.949606503593	0.0999870537780225	0.250018468592316
50362	100	336	2	64	2	1	90	1	2	0	1	22.5	157.5	0.521084037741751	-2.2091218613282	0.216666666666667	0	0	0	220.166303999955	220.266282276483	0.0999782765284181	0.216697496362031
50462	100	337	2	65	2	1	90	1	2	0	1	112.5	67.5	-1.87056181664668	-2.3629800186466	0.3	0	0	0	220.566311948001	220.666290468536	0.0999785205349326	0.300029671518132
50562	100	338	2	66	2	1	90	1	2	3	2	157.5	112.5	-2.72881691989876	-2.31617500221729	0.3	0	0	0	220.96632526	221.066303536762	0.0999782767612487	0.300034791463986
50653.75	100	339	2	67	2	1	90	1	2	3	1	22.5	67.5	1.46219305798284	-1.29685281914537	0.266666666666667	0	0	0	221.332995900884	221.432988074608	0.0999921737238765	0.266692364122719
50707.75	100	340	2	68	2	1	90	1	2	3	2	157.5	22.5	-0.577280355198074	-0.587201152350052	0.116666666666667	0	0	0	221.549670723034	221.649654607056	0.0999838840216398	0.116682648425922
50787	100	341	2	69	2	1	90	1	2	1	-1	90	135	1.39270554449557	-1.33010542184388	0.216666666666667	0	0	0	221.866342351073	221.966334281024	0.0999919299501926	0.21668774401769
50857.75	100	342	2	70	2	1	90	1	2	3	1	112.5	67.5	-2.79368135808089	-1.61226100831534	0.183333333333333	0	0	0	222.149687887169	222.249666163698	0.0999782765284181	0.183353606145829
50941.25	100	343	2	71	2	1	90	1	2	3	2	67.5	112.5	1.95185363972652	-2.58963227003352	0.233333333333333	1	0.517979130381718	1	222.483029022347	222.58301461325	0.0999855909030885	0.233362858649343
50999.5	100	344	2	72	2	1	90	1	2	3	1	112.5	157.5	-1.03534704331923	0.291003209637315	0.133333333333333	0	0	0	222.716369694332	222.816350165289	0.0999804709572345	0.13335508108139
51062	100	345	2	73	2	1	90	1	2	3	2	67.5	22.5	2.14827055867556	2.13469476386438	0.15	0	0	0	222.966377923032	223.06634669099	0.0999687679577619	0.150027757743374
51120.25	100	346	2	74	2	1	90	1	2	0	2	157.5	112.5	2.29025456704246	0.690852585857989	0.133333333333333	0	0	0	223.199707379797	223.299690288724	0.0999829089269042	0.133360688807443
51207.75	100	347	2	75	2	1	90	1	2	0	1	22.5	157.5	-0.0438748049104007	0.440949126383777	0.25	0	0	0	223.54971485259	223.649696542416	0.099981689825654	0.250024563865736
51274.5	100	348	2	76	2	1	90	1	2	0	1	22.5	157.5	-3.0445479857655	0.944723068076092	0.166666666666667	0	0	0	223.816396489041	223.916371352272	0.0999748632311821	0.166699946625158
51337	100	349	2	77	2	1	90	1	2	0	2	157.5	22.5	2.57746292178117	-1.87746690521018	0.15	0	0	0	224.066389845219	224.166378118098	0.0999882728792727	0.150018492946401
51395.25	100	350	2	78	2	1	90	1	2	0	2	67.5	22.5	-0.146936421909787	1.32172983622691	0.133333333333333	0	0	0	224.299735149601	224.399718058528	0.0999829089269042	0.133357031503692
51449.5	100	351	2	79	2	1	90	1	2	0	2	157.5	112.5	2.33743082977418	-0.24577665581451	0.116666666666667	0	0	0	224.516407289775	224.616388004506	0.0999807147309184	0.11668923124671
51499.5	100	352	2	80	2	1	90	1	2	0	2	157.5	112.5	-1.46863458973476	0.301779790590569	0.1	0	0	0	224.716412848793	224.816398439463	0.0999855906702578	0.100024844286963
51557.75	100	353	2	81	2	1	90	1	2	0	1	22.5	67.5	-1.97259239191583	0.708741325227274	0.133333333333333	0	0	0	224.949761810247	225.049739599228	0.0999777889810503	0.133363370783627
51607.75	100	354	2	82	2	1	90	1	2	0	1	22.5	157.5	2.08364765507105	-0.194994910596313	0.1	0	0	0	225.149769075681	225.249746620888	0.0999775452073663	0.100029476452619
51699.5	100	355	2	83	2	1	90	1	2	0	1	112.5	67.5	-0.835029611978456	-1.19063508356665	0.266666666666667	0	0	0	225.516439228784	225.61643920443	0.0999999756459147	0.266692607896402
51749.5	100	356	2	84	2	1	90	1	2	0	2	157.5	22.5	-2.11436674911402	-1.61946307818103	0.1	0	0	0	225.71644893242	225.816429159604	0.0999802271835506	0.100009727990255
51824.5	100	357	2	85	2	1	90	1	2	0	2	157.5	112.5	-0.809492139775462	-1.74936070728561	0.2	0	0	0	226.01647445932	226.116463707294	0.0999892479740083	0.200045299716294
51891.25	100	358	2	86	2	1	90	1	2	0	2	67.5	22.5	0.596243176797778	0.07822251272815	0.166666666666667	0	0	0	226.283133665565	226.38313242211	0.0999987565446645	0.166669958271086
51945.25	100	359	2	87	2	1	90	1	2	0	2	157.5	22.5	-3.1124418992888	-0.734054047068852	0.116666666666667	0	0	0	226.4998243351	226.599802855635	0.0999785205349326	0.116691912990063
52007.75	100	360	2	88	2	1	90	1	2	0	1	22.5	157.5	0.124551531316464	0.538364170672961	0.15	0	0	0	226.749832076253	226.849811815657	0.0999797394033521	0.150029220618308
52091.25	100	361	2	89	2	1	90	1	2	0	1	112.5	157.5	-0.340753553936834	-3.0669600538997	0.233333333333333	0	0	0	227.083170041908	227.183155632811	0.0999855909030885	0.233358226250857
52174.5	100	362	2	90	2	1	90	1	2	0	2	67.5	112.5	0.0981774421270076	-0.925809126674714	0.233333333333333	0	0	0	227.416510201991	227.516478725942	0.0999685239512473	0.233354569179937
52241.25	100	363	2	91	2	1	90	1	2	0	1	112.5	157.5	-2.3827600827317	2.27366619984593	0.166666666666667	0	0	0	227.68318818137	227.783168652095	0.0999804707244039	0.166709455428645
52299.5	100	364	2	92	2	1	90	1	2	0	1	112.5	67.5	1.34830840705597	-1.64279243220271	0.133333333333333	0	0	0	227.916531291325	228.01649518311	0.0999638917855918	0.133362639229745
52378.75	100	365	2	93	2	1	90	1	2	0	2	67.5	112.5	1.98885135207462	0.355962532195774	0.216666666666667	0	0	0	228.233200481394	228.333168518031	0.0999680366367102	0.216705298284069
52449.5	100	366	2	94	2	1	90	1	2	0	1	22.5	157.5	2.29632761827718	-0.0539892014426662	0.183333333333333	0	0	0	228.516547480365	228.616535265464	0.0999877850990742	0.183378962334245
52520.5	100	367	2	95	2	1	90	1	2	0	2	157.5	112.5	-1.12482349022138	-1.35201592724664	0.183333333333333	0	0	0	228.799890334485	228.899880070006	0.0999897355213761	0.183355069020763
52570.5	100	368	2	96	2	1	90	1	2	0	2	67.5	112.5	1.32692352316177	3.06311892913348	0.1	0	0	0	228.999893211527	229.099873194704	0.099979983177036	0.100013141520321
52637	100	369	2	97	2	1	90	1	2	0	1	22.5	67.5	-0.745254119481765	-1.28488464461322	0.166666666666667	0	0	0	229.266567289829	229.36655385606	0.0999865662306547	0.166694095125422
52716.25	100	370	2	98	2	1	90	1	2	3	1	22.5	157.5	1.57906506269959	1.70983440273724	0.216666666666667	0	0	0	229.583248426672	229.683213049779	0.0999646231066436	0.216694570612162
52812	100	371	2	99	2	1	90	1	2	3	1	112.5	67.5	-2.75701141940166	-2.14528881843402	0.283333333333333	0	0	0	229.966591256438	230.066552466247	0.0999612098094076	0.283378206659108
52874.5	100	372	2	100	2	1	90	1	2	3	1	112.5	157.5	2.34239250683968	-2.72188330081783	0.15	0	0	0	230.216577785788	230.316577030113	0.099999244324863	0.150025319540873
52924.5	100	373	2	101	2	1	90	1	2	2	-1	45	90	2.85289275665118	2.33277662881742	0.1	0	0	0	230.416602849495	230.516569910804	0.0999670613091439	0.100025819381699
52983	100	374	2	102	2	1	90	1	2	3	2	157.5	112.5	-0.0326503444680331	-0.377078269131877	0.133333333333333	0	0	0	230.649923285237	230.749903756194	0.0999804709572345	0.133353374432772
53074.5	100	375	2	103	2	1	90	1	2	3	2	67.5	22.5	0.0836547596311372	-2.75192920803334	0.266666666666667	0	0	0	231.01659636409	231.116580735892	0.0999843718018383	0.266692607896402
53162	100	376	2	104	2	1	90	1	2	3	1	22.5	67.5	0.191703163437559	-0.704425538432136	0.25	0	0	0	231.366607006406	231.466585039161	0.0999780327547342	0.250026270514354
53228.75	100	377	2	105	2	1	90	1	2	3	2	157.5	22.5	0.234560405609668	-0.377637328711134	0.166666666666667	0	0	0	231.633287423989	231.733261311892	0.0999738879036158	0.166702384827659
53316.25	100	378	2	106	2	1	90	1	2	0	2	157.5	112.5	-3.01160733840789	1.47914353835256	0.25	0	0	0	231.983287826413	232.083282681881	0.0999948554672301	0.250026514520869
53387	100	379	2	107	2	1	90	1	2	0	1	112.5	157.5	2.93692597117638	-2.45519081102389	0.183333333333333	0	0	0	232.266651404323	232.366634069243	0.0999826649203897	0.183368722442538
53478.75	100	380	2	108	2	1	90	1	2	0	1	22.5	67.5	-1.73605047329058	-1.72682630103875	0.266666666666667	0	0	0	232.633329603123	232.733310073847	0.0999804707244039	0.266695533879101
53545.5	100	381	2	109	2	1	90	1	2	0	2	157.5	112.5	-1.99557843466743	2.88589702866573	0.166666666666667	0	0	0	232.900002218783	232.999982933281	0.0999807144980878	0.166692144935951
53599.5	100	382	2	110	2	1	90	1	2	0	2	67.5	22.5	-2.49646402324891	1.49940152097707	0.116666666666667	0	0	0	233.11667996645	233.216639225837	0.0999592593871057	0.116697033168748
53699.5	100	383	2	111	2	1	90	1	2	0	1	22.5	67.5	-1.56791812065742	-2.17070474419971	0.3	0	0	0	233.516667190939	233.616645955015	0.0999787640757859	0.300027965102345
53762	100	384	2	112	2	1	90	1	2	0	1	112.5	157.5	1.99273532351779	-1.0240600855945	0.15	0	0	0	233.766674688086	233.866652964614	0.0999782765284181	0.15002873307094
53812	100	385	2	113	2	1	90	1	2	0	1	22.5	67.5	-2.95263494430078	-0.927057687322025	0.1	0	0	0	233.966673176503	234.066655110102	0.0999819335993379	0.100020211888477
53878.75	100	386	2	114	2	1	90	1	2	0	1	112.5	67.5	-2.53544502666043	1.10171865275733	0.166666666666667	0	0	0	234.233344573062	234.333317973418	0.099973400356248	0.166689462959766
53962	100	387	2	115	2	1	90	1	2	0	1	112.5	67.5	1.25014826553226	0.730713284291691	0.233333333333333	0	0	0	234.566692047287	234.666669592494	0.0999775452073663	0.233374073868617
54037	100	388	2	116	2	1	90	1	2	0	2	67.5	112.5	-1.91583787887738	2.19906820689261	0.2	0	0	0	234.866703189444	234.96668195352	0.0999787640757859	0.200033596949652
54095.5	100	389	2	117	2	1	90	1	2	0	2	67.5	112.5	-3.03045976034773	2.01811917038005	0.133333333333333	0	0	0	235.100035815733	235.200021650409	0.0999858346767724	0.133353862212971
54153.75	100	390	2	118	2	1	90	1	2	0	1	22.5	157.5	0.62453768737563	0.111643452013125	0.133333333333333	0	0	0	235.333384533413	235.433368173661	0.0999836402479559	0.133362883003429
54245.5	100	391	2	119	2	1	90	1	2	0	2	157.5	112.5	0.480553911357005	1.50021489979233	0.266666666666667	0	0	0	235.700056149391	235.80003735167	0.0999812022782862	0.266687975730747
54303.75	100	392	2	120	2	1	90	1	2	0	2	157.5	22.5	0.143955737869767	1.52856667656806	0.133333333333333	0	0	0	235.933395114727	236.033371440833	0.0999763261061162	0.133357763057575
54391.25	100	393	2	121	2	1	90	1	2	0	1	112.5	67.5	1.27325823781913	1.63170657099077	0.25	0	0	0	236.283424774185	236.383398418315	0.0999736441299319	0.250053333351389
54441.25	100	394	2	122	2	1	90	1	2	0	2	67.5	22.5	-2.4952754765655	-0.155581629439081	0.1	0	0	0	236.483409852954	236.583391543012	0.0999816900584847	0.100011434638873
54528.75	100	395	2	123	2	1	90	1	2	0	1	112.5	157.5	2.32180112669802	1.79034501591579	0.25	0	0	0	236.833426834317	236.933402185095	0.0999753507785499	0.250035291304812
54599.5	100	396	2	124	2	1	90	1	2	0	2	67.5	22.5	1.36406784698183	1.31037100366597	0.183333333333333	0	0	0	237.116765299812	237.216745039215	0.0999797394033521	0.183363114716485
54683	100	397	2	125	2	1	90	1	2	0	1	22.5	157.5	-2.85777726438235	2.60566634109679	0.233333333333333	1	0	0	237.450098389294	237.550071058329	0.0999726690351963	0.233353350078687
54774.5	100	398	2	126	2	1	90	1	2	0	2	67.5	22.5	-2.36845194302724	-2.34191507962859	0.266666666666667	0	0	0	237.816778294975	237.916783390567	0.100005095591769	0.266707236645743
54866.25	100	399	2	127	2	1	90	1	2	0	2	157.5	22.5	-0.0402632231836595	2.32996832960004	0.266666666666667	0	0	0	238.183473804267	238.283459151397	0.0999853471294045	0.266690413700417
54966.25	100	400	2	128	2	1	90	1	2	0	2	157.5	112.5	0.00474719311279648	-3.11442537959725	0.3	0	0	0	238.583469318226	238.683435404208	0.0999660859815776	0.300010166829452
55028.75	100	401	2	129	2	1	90	1	2	0	1	22.5	67.5	-1.3846705417863	1.66930017420216	0.15	0	0	0	238.833462674404	238.933448752854	0.0999860784504563	0.150027270196006
55124.5	100	402	2	130	2	1	90	1	2	0	2	67.5	112.5	-2.37480916909026	0.539314422382633	0.283333333333333	0	0	0	239.216804285068	239.316784024471	0.0999797394033521	0.283355532214046
55178.75	100	403	2	131	2	1	90	1	2	0	1	22.5	157.5	-0.592815279208366	-0.0133003176215238	0.116666666666667	0	0	0	239.433478375664	239.533457383746	0.0999790080823004	0.116694351192564
55278.75	100	404	2	132	2	1	90	1	2	3	1	22.5	67.5	-2.28108132226873	2.90749645540085	0.3	0	0	0	239.833489005687	239.933474840363	0.0999858346767724	0.300031621940434
55333	100	405	2	133	2	1	90	1	2	3	2	157.5	22.5	0.576872332997507	0.452131528371795	0.116666666666667	0	0	0	240.050180650782	240.150146249216	0.0999655984342098	0.116705810418352
55424.5	100	406	2	134	2	1	90	1	2	3	2	67.5	22.5	2.26879691914902	-0.515785832603029	0.266666666666667	0	0	0	240.416836175369	240.516847610008	0.100011434638873	0.266689926153049
55483	100	407	2	135	2	1	90	1	2	3	1	112.5	67.5	-2.21657875368446	1.78245249791311	0.133333333333333	0	0	0	240.65021268744	240.750191207742	0.099978520302102	0.133365077432245
56778.75	100	408	3	0	1	1	90	1	1	3	2	157.5	22.5	-0.707715425529471	2.12929283581856	0.2	0	0	0	245.833684784826	245.933650383493	0.0999655986670405	-1
56853.75	100	409	3	1	1	1	90	1	1	3	1	112.5	67.5	-0.207258074667047	0.791358978896067	0.2	0	0	0	246.133692513686	246.233650797745	0.0999582840595394	0.200042130192742
56928.75	100	410	3	2	1	1	90	1	1	3	1	112.5	157.5	-0.977166957240682	0.0544017829259391	0.2	0	0	0	246.433677811874	246.533663402777	0.0999855909030885	0.200027014128864
57003.75	100	411	3	3	1	1	90	1	1	3	1	22.5	67.5	-0.404785170881249	1.10953519940666	0.2	0	0	0	246.73368773493	246.833670887863	0.0999831529334188	0.20002433215268
57078.75	100	412	3	4	1	1	90	1	1	0	2	67.5	112.5	-1.38774924449355	-1.84745134285509	0.2	0	0	0	247.033694488462	247.13367910427	0.0999846158083528	0.200023600598797
57153.75	100	413	3	5	1	1	90	1	1	0	1	112.5	67.5	-2.98272741159238	1.08775152124745	0.2	0	0	0	247.333700510673	247.433684638701	0.0999841280281544	0.200021406402811
57228.75	100	414	3	6	1	1	90	1	1	0	2	67.5	22.5	1.91556113771929	2.17752649949189	0.2	0	0	0	247.633719698526	247.733696755953	0.0999770574271679	0.200035059824586
57303.75	100	415	3	7	1	1	90	1	1	0	1	22.5	157.5	-1.62232026850247	1.74830175666377	0.2	0	0	0	247.933718162356	248.033702290384	0.0999841280281544	0.200021406402811
57378.75	100	416	3	8	1	1	90	1	1	0	2	67.5	22.5	-2.32562619231241	-0.0659102052550771	0.2	0	0	0	248.233728573192	248.333711238345	0.0999826651532203	0.200026282807812
57453.75	100	417	3	9	1	1	90	1	1	0	1	22.5	157.5	-1.9082269125954	-1.95221029253799	0.2	0	0	0	248.533742153319	248.633718235651	0.0999760823324323	0.200030914973468
57528.75	100	418	3	10	1	1	90	1	1	0	1	22.5	67.5	0.281902808122832	2.84187883132233	0.2	0	0	0	248.833745006006	248.933725476731	0.0999804707244039	0.20002677035518
57603.75	100	419	3	11	1	1	90	1	1	0	2	157.5	22.5	1.80617507676686	2.04313843854304	0.2	0	0	0	249.133751515532	249.233732961584	0.0999814460519701	0.200026038801298
57678.75	100	420	3	12	1	1	90	1	1	0	2	67.5	112.5	0.34542292685474	0.371504711300869	0.2	0	0	0	249.433758269064	249.53374044667	0.0999821776058525	0.200025307480246
57753.75	100	421	3	13	1	1	90	1	1	0	2	67.5	112.5	-0.207013168008842	-2.04498352455996	0.2	0	0	0	249.733767460799	249.833752320148	0.0999848593492061	0.200027014128864
57828.75	100	422	3	14	1	1	90	1	1	0	1	22.5	157.5	1.85315448724316	-2.11305909850483	0.2	0	0	0	250.033779090503	250.133756879484	0.0999777889810503	0.20002677035518
57903.75	100	423	3	15	1	1	90	1	1	0	1	112.5	157.5	-1.63246948137307	1.76469512349543	0.2	0	0	0	250.333783405833	250.433768996736	0.0999855909030885	0.200026526348665
57978.75	100	424	3	16	1	1	90	1	1	0	2	157.5	112.5	-0.829901004301632	-1.65874005469052	0.2	0	0	0	250.633789915591	250.733777213143	0.0999872975517064	0.200020918855444
58053.75	100	425	3	17	1	1	90	1	1	0	2	157.5	112.5	-1.78143280881874	-1.50622498362235	0.2	0	0	0	250.933799107326	251.033784454223	0.0999853468965739	0.20002189418301
58128.75	100	426	3	18	1	1	90	1	1	0	2	157.5	22.5	-0.595946977552191	2.91292685723563	0.2	0	0	0	251.233812931227	251.333791207755	0.0999782765284181	0.200028477003798
58203.75	100	427	3	19	1	1	90	1	1	0	1	22.5	67.5	0.812690688830621	-2.08569670738074	0.2	0	0	0	251.53381797811	251.633798936615	0.0999809585046023	0.20002677035518
58278.75	100	428	3	20	1	1	90	1	1	0	2	157.5	112.5	0.507320946584728	-0.959888365122518	0.2	0	0	0	251.833827657392	251.933807884343	0.09998022695072	0.200028720777482
58353.75	100	429	3	21	1	1	90	1	1	0	1	22.5	67.5	-1.27389300873371	-2.56015077430476	0.2	0	0	0	252.133834654698	252.233814881649	0.09998022695072	0.20002677035518
58428.75	100	430	3	22	1	1	90	1	1	0	1	22.5	67.5	-0.15108622327013	0.857688661032833	0.2	0	0	0	252.433839457808	252.533827974228	0.099988516420126	0.200024576159194
58503.75	100	431	3	23	1	1	90	1	1	0	1	112.5	157.5	-1.85702375191136	-2.27959983823968	0.2	0	0	0	252.733852550387	252.833832777338	0.09998022695072	0.200024576159194
58578.75	100	432	3	24	1	1	90	1	1	0	2	67.5	112.5	2.25183035692988	1.17012996885869	0.2	0	0	0	253.03385637817	253.133838799549	0.0999824213795364	0.200023600831628
58653.75	100	433	3	25	1	1	90	1	1	0	2	157.5	22.5	1.1014578988895	-0.085179532415832	0.2	0	0	0	253.333870445844	253.43385262345	0.0999821776058525	0.200031646294519
58728.75	100	434	3	26	1	1	90	1	1	0	1	112.5	67.5	2.77771566586085	-0.108208692031205	0.2	0	0	0	253.633875248954	253.733853281708	0.0999780327547342	0.200022625504062
58803.75	100	435	3	27	1	1	90	1	1	0	1	112.5	157.5	3.12851937445321	1.2919554449135	0.2	0	0	0	253.933885415783	254.033867837163	0.0999824213795364	0.200032134074718
58878.75	100	436	3	28	1	1	90	1	1	0	1	22.5	67.5	0.602891287068714	-3.1046485878297	0.2	0	0	0	254.233893875964	254.333875809796	0.0999819338321686	0.200026038801298
58953.75	100	437	3	29	1	1	90	1	1	0	2	67.5	112.5	-0.374812270827986	1.20338767873678	0.2	0	0	0	254.533895997098	254.6338803689	0.0999843718018383	0.200020187301561
59028.75	100	438	3	30	1	1	90	1	1	0	2	157.5	22.5	3.07859028971486	-2.30528733151954	0.2	0	0	0	254.833932739217	254.933912234847	0.0999794956296682	0.20005237031728
59103.75	100	439	3	31	1	1	90	1	1	0	1	22.5	67.5	0.217781981032439	0.885360940455032	0.2	0	0	0	255.133935835678	255.233919719933	0.0999838842544705	0.200023600831628
59178.75	100	440	3	32	1	1	90	1	1	0	1	22.5	157.5	-0.602239340186399	1.24438420729112	0.2	0	0	0	255.433947465383	255.533929886762	0.0999824213795364	0.200027745449916
59253.75	100	441	3	33	1	1	90	1	1	0	1	22.5	157.5	0.064050214903649	-2.30342163352623	0.2	0	0	0	255.733939102618	255.833937615389	0.0999985127709806	0.200009215855971
59329	100	442	3	34	1	1	90	1	1	0	2	67.5	22.5	-2.35294817561819	1.30511388511962	0.2	0	0	0	256.033964873292	256.133944125148	0.0999792518559843	0.200027257902548
59404	100	443	3	35	1	1	90	1	1	0	2	157.5	22.5	1.57508495296417	0.550116255843289	0.2	0	0	0	256.333970164182	256.433951122453	0.0999809582717717	0.200026039034128
59479	100	444	3	36	1	1	90	1	1	0	1	112.5	67.5	1.1174949163015	-1.62878385591899	0.2	0	0	0	256.633960338542	256.733956169337	0.0999958307947963	0.200009216088802
59554	100	445	3	37	1	1	90	1	1	0	2	67.5	112.5	-2.56687292542384	0.813054702967314	0.2	0	0	0	256.933980745496	257.033958046697	0.0999773012008518	0.200024576159194
59629	100	446	3	38	1	1	90	1	1	0	2	157.5	112.5	2.21078629744427	-2.40035745682376	0.2	0	0	0	257.233957510442	257.333970407955	0.100012897513807	0.199999463744462
59704	100	447	3	39	1	1	90	1	1	0	1	22.5	157.5	1.48244416283623	-0.47353081736122	0.2	0	0	0	257.533993521007	257.633976673707	0.0999831527005881	0.200023113051429
59779	100	448	3	40	1	1	90	1	1	3	2	157.5	22.5	1.66386780158641	2.77224732314957	0.2	0	0	0	257.834002224961	257.933982208371	0.0999799834098667	0.20002555125393
59854	100	449	3	41	1	1	90	1	1	3	2	67.5	112.5	-2.96115963066206	1.11228122389319	0.2	0	0	0	258.134010441368	258.233992862748	0.0999824213795364	0.200028232997283
59929	100	450	3	42	1	1	90	1	1	3	1	112.5	157.5	1.37116374347045	-2.16901140215446	0.2	0	0	0	258.434019389329	258.534001322929	0.0999819335993379	0.200026526581496
60004	100	451	3	43	1	1	90	1	1	2	-1	135	90	-2.2300921075449	3.01158799065934	0.2	0	0	0	258.734031506581	258.834008320235	0.099976813653484	0.200030183652416
60079	100	452	3	44	1	1	90	1	1	3	1	22.5	157.5	-3.04734265175407	2.13305312691247	0.2	0	0	0	259.034036309691	259.134015073767	0.0999787640757859	0.20002798945643
60154	100	453	3	45	1	1	90	1	1	3	2	67.5	22.5	1.32389629942809	-0.589998380275293	0.2	0	0	0	259.334043794544	259.434023533948	0.0999797394033521	0.200028720777482
60229	100	454	3	46	1	1	90	1	1	3	1	112.5	67.5	1.22310602299169	-1.84521203958621	0.2	0	0	0	259.6340537176	259.734023217112	0.0999694995116442	0.200030183652416
60304	100	455	3	47	1	1	90	1	1	3	2	157.5	112.5	1.73502542274687	1.1946255645743	0.2	0	0	0	259.934041941538	260.034028995316	0.0999870537780225	0.200018724426627
60379	100	456	3	48	1	1	90	1	1	0	2	157.5	22.5	-1.68662866725432	-3.06386145595021	0.2	0	0	0	260.23405454657	260.334035505075	0.0999809585046023	0.20002555125393
60454	100	457	3	49	1	1	90	1	1	0	2	157.5	22.5	-1.95837820706028	-0.0841402035023657	0.2	0	0	0	260.534065444954	260.63404177106	0.0999763261061162	0.200029939878732
60529	100	458	3	50	1	1	90	1	1	0	1	22.5	157.5	2.4587405117521	-2.86892279075417	0.2	0	0	0	260.834072929807	260.934073149227	0.100000219419599	0.200031158747151
60604	100	459	3	51	1	1	90	1	1	0	2	157.5	112.5	-2.71382835889661	2.48696018614271	0.2	0	0	0	261.134098700481	261.234083072282	0.0999843718018383	0.20002555125393
60679	100	460	3	52	1	1	90	1	1	0	1	22.5	157.5	2.60029762639499	-1.23210980982343	0.2	0	0	0	261.434108623536	261.534076172393	0.0999675488565117	0.20002555125393
60754	100	461	3	53	1	1	90	1	1	0	1	112.5	67.5	1.91750465806852	-2.44670161768776	0.2	0	0	0	261.734116839943	261.834101455519	0.0999846155755222	0.200040667550638
60829	100	462	3	54	1	1	90	1	1	0	1	112.5	157.5	1.62391136174464	-1.20061211853008	0.2	0	0	0	262.034123105928	262.134105527075	0.0999824211467057	0.200021650409326
60904	100	463	3	55	1	1	90	1	1	0	1	112.5	67.5	-1.93004153521156	2.90839162644583	0.2	0	0	0	262.334134004079	262.434113255935	0.0999792518559843	0.200028477003798
60979	100	464	3	56	1	1	90	1	1	0	1	22.5	67.5	1.3742508397147	-2.12799180062255	0.2	0	0	0	262.634144414915	262.7341083067	0.0999638917855918	0.200031158979982
61054	100	465	3	57	1	1	90	1	1	0	2	157.5	112.5	-2.58904853126425	-0.34511967390965	0.2	0	0	0	262.934132395079	263.034128957195	0.0999965621158481	0.200024088378996
61129	100	466	3	58	1	1	90	1	1	0	2	67.5	22.5	-1.32846518161413	0.434706334906566	0.2	0	0	0	263.23416157905	263.334138392704	0.099976813653484	0.200032621854916
61204	100	467	3	59	1	1	90	1	1	0	1	22.5	67.5	1.9907067482131	-1.32257441816157	0.2	0	0	0	263.534164431505	263.634145146236	0.0999807147309184	0.200026038801298
61279	100	468	3	60	1	1	90	1	1	0	1	22.5	67.5	-0.634772921427946	0.361482051717471	0.2	0	0	0	263.834180449834	263.934162871214	0.0999824213795364	0.20003530359827
61354	100	469	3	61	1	1	90	1	1	0	2	67.5	22.5	-0.905417488578524	-2.85520394523861	0.2	0	0	0	264.1341637976	264.234145731432	0.0999819338321686	0.200000926386565
61429	100	470	3	62	1	1	90	1	1	0	1	112.5	67.5	2.1636981542667	-0.197847101197263	0.2	0	0	0	264.434162992984	264.534150778316	0.0999877853319049	0.200017261551693
61504	100	471	3	63	1	1	90	1	1	0	2	67.5	112.5	-0.223276559903367	3.01482800494279	0.2	0	0	0	264.734176817117	264.834156068973	0.0999792518559843	0.200026038801298
61579	100	472	3	64	1	1	90	1	1	0	1	112.5	67.5	0.80446772809586	-0.0909499641573754	0.2	0	0	0	265.034182595322	265.134164529154	0.0999819338321686	0.200026526348665
61654	100	473	3	65	1	1	90	1	1	0	2	157.5	22.5	0.808148288537816	1.55377379878297	0.2	0	0	0	265.334191543283	265.434174695984	0.0999831527005881	0.200027014128864
61729	100	474	3	66	1	1	90	1	1	0	1	112.5	67.5	2.28140455337538	-1.05730243834227	0.2	0	0	0	265.634195858613	265.734188519884	0.0999926612712443	0.200021162629128
61804	100	475	3	67	1	1	90	1	1	0	2	67.5	112.5	2.74411904154563	1.50166853512461	0.2	0	0	0	265.934205050347	266.034197224071	0.0999921737238765	0.200016530463472
61879	100	476	3	68	1	1	90	1	1	0	1	112.5	157.5	-2.03328001686684	-1.48012451870837	0.2	0	0	0	266.234237160068	266.334218849894	0.099981689825654	0.200039935996756
61954	100	477	3	69	1	1	90	1	1	0	2	157.5	22.5	-0.838291069962257	0.911738881291895	0.2	0	0	0	266.534249033546	266.634230235824	0.0999812022782862	0.200030183652416
62029	100	478	3	70	1	1	90	1	1	0	1	112.5	157.5	1.8811297343201	2.86973750713344	0.2	0	0	0	266.834257493727	266.934235038934	0.0999775452073663	0.200027257902548
62104	100	479	3	71	1	1	90	1	1	0	1	112.5	67.5	1.1997960115135	-0.0732409262362048	0.2	0	0	0	267.13426546636	267.23424496199	0.0999794956296682	0.2000304274261
62179	100	480	3	72	1	1	90	1	1	0	2	67.5	112.5	2.49407264253527	1.78364653229371	0.2	0	0	0	267.434268075041	267.534251471516	0.099983396474272	0.200023113051429
62254	100	481	3	73	1	1	90	1	1	0	1	22.5	67.5	-2.98285674208736	-1.11958173868468	0.2	0	0	0	267.734271171503	267.834239695687	0.099968524184078	0.200019699987024
62329	100	482	3	74	1	1	90	1	1	0	2	67.5	112.5	1.28042748461422	-0.884072483150319	0.2	0	0	0	268.034283288755	268.13426497858	0.099981689825654	0.200043593067676
62404	100	483	3	75	1	1	90	1	1	0	2	67.5	112.5	-0.235106091243453	-2.57002580169734	0.2	0	0	0	268.334287116537	268.43427270744	0.0999855909030885	0.200022137956694
62479	100	484	3	76	1	1	90	1	1	0	1	22.5	157.5	3.14121261540701	-1.3447706323833	0.2	0	0	0	268.634299721569	268.734263857128	0.0999641355592757	0.200027014128864
62554	100	485	3	77	1	1	90	1	1	0	2	67.5	22.5	-0.625010034882319	0.712235918533759	0.2	0	0	0	268.934307937976	269.034289871575	0.0999819335993379	0.200044080847874
62629	100	486	3	78	1	1	90	1	1	0	1	22.5	67.5	2.55125973543908	1.44916579041845	0.2	0	0	0	269.234294699039	269.33426956227	0.0999748632311821	0.200004827463999
62704	100	487	3	79	1	1	90	1	1	0	2	157.5	22.5	-2.52773864314554	1.25263319047786	0.2	0	0	0	269.534292187775	269.634275584482	0.0999833967071027	0.200022625504062
62779	100	488	3	80	1	1	90	1	1	0	2	67.5	22.5	-1.31019190750635	0.961785601700186	0.2	0	0	0	269.834299428854	269.934283556882	0.0999841280281544	0.200023844372481
62854	100	489	3	81	1	1	90	1	1	0	2	67.5	22.5	-1.43955179403202	-2.65059436501545	0.2	0	0	0	270.134310327237	270.234297624789	0.0999872975517064	0.20002677035518
62929	100	490	3	82	1	1	90	1	1	0	1	112.5	157.5	0.684344264116153	1.55476335451531	0.2	0	0	0	270.434324395144	270.534303402994	0.0999790078494698	0.20002677035518
63004	100	491	3	83	1	1	90	1	1	3	2	157.5	22.5	-1.76436952005816	-2.98267177702767	0.2	0	0	0	270.734331879998	270.834312838502	0.0999809585046023	0.200028477003798
63079	100	492	3	84	1	1	90	1	1	3	1	22.5	157.5	1.11475364317165	-0.658018265708686	0.2	0	0	0	271.034334001131	271.134315934964	0.0999819338321686	0.200021162629128
63154	100	493	3	85	1	1	90	1	1	3	1	22.5	67.5	-0.599023802627702	-2.2296684471467	0.2	0	0	0	271.334347581258	271.43433536659	0.0999877853319049	0.200031646294519
63229	100	494	3	86	1	1	90	1	1	1	-1	90	135	0.68191195462839	-0.830085550466269	0.2	0	0	0	271.634377009235	271.734350165818	0.0999731565825641	0.200041642645374
63304	100	495	3	87	1	1	90	1	1	3	1	112.5	157.5	-0.435405840956758	2.90297314290265	0.2	0	0	0	271.934361088322	272.034340340178	0.0999792518559843	0.200010922504589
63379	100	496	3	88	1	1	90	1	1	3	2	67.5	22.5	1.61452532644782	0.159821428862156	0.2	1	0.492158229462802	1	272.234365160111	272.334349287907	0.0999841277953237	0.200024819932878
63454	100	497	3	89	1	1	90	1	1	3	2	157.5	112.5	-2.16022720956829	2.48564504131919	0.2	0	0	0	272.534382641083	272.634353359696	0.0999707186128944	0.200033353175968
63529	100	498	3	90	1	1	90	1	1	3	2	67.5	112.5	1.49743068266936	1.14404473330104	0.2	0	0	0	272.834379154723	272.934382056119	0.100002901395783	0.200025795027614
63604	100	499	3	91	1	1	90	1	1	0	2	157.5	22.5	0.328889090745226	-2.49959511394345	0.2	0	0	0	273.134405656718	273.234384908574	0.0999792518559843	0.200023600598797
63679	100	500	3	92	1	1	90	1	1	0	1	112.5	67.5	0.813393436284795	1.37509612637938	0.2	0	0	0	273.43440997228	273.534393612528	0.0999836402479559	0.200025063706562
63754	100	501	3	93	1	1	90	1	1	0	1	22.5	157.5	2.77438603965107	-1.19161176459523	0.2	0	0	0	273.734424283961	273.834398171864	0.0999738879036158	0.200030671432614
63829	100	502	3	94	1	1	90	1	1	0	2	67.5	22.5	0.405578698580181	0.733845179643654	0.2	0	0	0	274.034431037493	274.134412239771	0.0999812022782862	0.2000328656286
63904	100	503	3	95	1	1	90	1	1	0	1	112.5	157.5	-1.71119435048588	-0.757905781064944	0.2	0	0	0	274.334439009894	274.434419968398	0.0999809585046023	0.200026770122349
63979	100	504	3	96	1	1	90	1	1	0	2	67.5	22.5	-0.0132463736693937	0.925544817760005	0.2	0	0	0	274.634441374801	274.734426234383	0.0999848595820367	0.200021406402811
64054	100	505	3	97	1	1	90	1	1	0	2	157.5	112.5	0.130560652127087	-0.903227983946919	0.2	0	0	0	274.93445446738	275.034432012588	0.0999775452073663	0.200028232997283
64129	100	506	3	98	1	1	90	1	1	0	1	112.5	157.5	2.67470721413701	-1.69504070146059	0.2	0	0	0	275.234460733365	275.33444169187	0.0999809585046023	0.200028720777482
64204	100	507	3	99	1	1	90	1	1	0	2	157.5	112.5	1.06898165838265	-2.28492573009447	0.2	0	0	0	275.534465048928	275.634451127378	0.0999860784504563	0.200023357057944
64279	100	508	3	100	1	1	90	1	1	0	1	112.5	157.5	0.472968453373553	2.63713231234092	0.2	0	0	0	275.834481067024	275.934459099779	0.0999780327547342	0.200029939645901
64354	100	509	3	101	1	1	90	1	1	0	1	22.5	157.5	2.73742504320916	2.12259001216971	0.2	0	0	0	276.134482944384	276.234469998162	0.0999870537780225	0.200023844605312
64429	100	510	3	102	1	1	90	1	1	0	2	157.5	112.5	-2.43867939005164	-1.54849137918431	0.2	0	0	0	276.434492136119	276.534476020141	0.0999838840216398	0.200022137956694
64504	100	511	3	103	1	1	90	1	1	0	1	112.5	67.5	1.65689903995205	-2.77891414697455	0.2	0	0	0	276.734504497144	276.834482286125	0.0999777889810503	0.200028477003798
64579	100	512	3	104	1	1	90	1	1	0	2	157.5	112.5	0.976528353637949	-2.46780860604374	0.2	0	0	0	277.034509787802	277.134492452955	0.0999826651532203	0.200027501676232
64654	100	513	3	105	1	1	90	1	1	0	2	157.5	112.5	2.52000204065677	1.90245191581173	0.2	0	0	0	277.334515078459	277.434504082659	0.0999890042003244	0.200022625504062
64729	100	514	3	106	1	1	90	1	1	0	2	157.5	112.5	2.35690024185932	2.64570802942912	0.2	0	0	0	277.634527683491	277.7345005963	0.0999729128088802	0.200023600831628
64804	100	515	3	107	1	1	90	1	1	0	1	22.5	157.5	0.534847231858123	3.14088407250919	0.2	0	0	0	277.934519564733	278.034502961207	0.099983396474272	0.200018968433142
64879	100	516	3	108	1	1	90	1	1	0	2	157.5	22.5	1.23153158241574	-0.608072039181954	0.2	0	0	0	278.234537045704	278.334509470966	0.0999724252615124	0.20003408449702
64954	100	517	3	109	1	1	90	1	1	0	2	67.5	22.5	2.97903671906888	-2.82399651172199	0.2	0	0	0	278.53453794797	278.634520369116	0.0999824211467057	0.200028477003798
65029	100	518	3	110	1	1	90	1	1	0	1	112.5	157.5	1.13769037624416	-1.78164792697061	0.2	0	0	0	278.8345493339	278.9345312675	0.0999819335993379	0.200028964783996
65104	100	519	3	111	1	1	90	1	1	0	1	112.5	157.5	-2.90829294831802	-0.48393088975458	0.2	0	0	0	279.13455364923	279.234543140978	0.0999894917476922	0.200022381730378
65179	100	520	3	112	1	1	90	1	1	0	1	112.5	157.5	-1.14007522195795	1.44990963182509	0.2	0	0	0	279.434567229357	279.534547212766	0.0999799834098667	0.200024088378996
65254	100	521	3	113	1	1	90	1	1	0	2	67.5	22.5	1.74120001672075	3.11415707854851	0.2	0	0	0	279.734576421091	279.8345493339	0.0999729128088802	0.20002920832485
65329	100	522	3	114	1	1	90	1	1	0	1	112.5	67.5	-0.969726508497994	0.644812652638074	0.2	0	0	0	280.034575128928	280.134558281628	0.0999831527005881	0.200025795027614
65404	100	523	3	115	1	1	90	1	1	0	2	67.5	112.5	2.5990137097854	0.79478621571189	0.2	0	0	0	280.334586514859	280.434568204684	0.099981689825654	0.200028233230114
65479	100	524	3	116	1	1	90	1	1	0	1	112.5	67.5	-0.520019595013188	-2.25008608386008	0.2	0	0	0	280.634593024384	280.734580321936	0.0999872975517064	0.200024819700047
65554	100	525	3	117	1	1	90	1	1	0	1	22.5	67.5	1.53267625789337	-1.71217258187469	0.2	0	0	0	280.934620014159	281.034599509789	0.0999794956296682	0.200039692223072
65629	100	526	3	118	1	1	90	1	1	0	2	67.5	112.5	3.129714776863	-2.27262673708514	0.2	0	0	0	281.234625061043	281.334607238648	0.0999821776058525	0.20002555125393
65704	100	527	3	119	1	1	90	1	1	0	2	67.5	22.5	0.724653911218699	0.859262323614526	0.2	0	0	0	281.5346303517	281.634612529306	0.0999821776058525	0.200023113051429
65779	100	528	3	120	1	1	90	1	1	0	2	157.5	22.5	-1.75426122105381	-0.619612417809958	0.2	0	0	0	281.834639055654	281.934626353206	0.0999872975517064	0.200026526348665
65854	100	529	3	121	1	1	90	1	1	0	2	157.5	112.5	0.171685588883826	3.00988663232372	0.2	0	0	0	282.1346697025	282.234651148785	0.0999814462848008	0.200043349293992
65929	100	530	3	122	1	1	90	1	1	0	1	22.5	157.5	-0.948531180390445	2.20332102269826	0.2	0	0	0	282.434685233282	282.534642054699	0.099956821417436	0.20003408449702
66004	100	531	3	123	1	1	90	1	1	0	1	22.5	67.5	2.82499538604972	-0.129424798267203	0.2	0	0	0	282.734684184892	282.834651002428	0.09996681753546	0.200042130192742
66079	100	532	3	124	1	1	90	1	1	3	2	67.5	22.5	-0.360924129777182	-1.77012873546748	0.2	0	0	0	283.034691182198	283.134682868375	0.0999916861765087	0.20004017977044
66154	100	533	3	125	1	1	90	1	1	3	1	22.5	157.5	-1.00342769648405	-0.801172633364831	0.2	0	0	0	283.334701592801	283.434666703688	0.099965110886842	0.200018724426627
66229	100	534	3	126	1	1	90	1	1	3	2	157.5	112.5	0.0193192605115966	-2.94039709287269	0.2	0	0	0	283.634693961591	283.734668581048	0.0999746194574982	0.200027257902548
66304	100	535	3	127	1	1	90	1	1	3	2	67.5	112.5	1.18384259627181	0.695802218697267	0.2	0	0	0	283.934694863856	284.034680942306	0.0999860784504563	0.200026282807812
67183.25	100	536	4	0	2	1	0	1	2	3	2	67.5	112.5	3.12043812549845	-1.80897599368931	0.1	0	0	0	287.451453726972	287.551435173023	0.0999814460519701	-1
67279	100	537	4	1	2	1	0	1	2	3	2	67.5	22.5	-2.19402633990653	1.82097736293341	0.283333333333333	0	0	0	287.834811916808	287.934778978117	0.0999670613091439	0.283376743784174
67350	100	538	4	2	2	1	0	1	2	3	2	157.5	112.5	-1.85126445269098	-2.97526195261342	0.183333333333333	0	0	0	288.118131121388	288.218113298761	0.0999821773730218	0.183352143270895
67441.5	100	539	4	3	2	1	0	1	2	3	1	22.5	157.5	2.44268496298792	1.00548656876806	0.266666666666667	0	0	0	288.484808101086	288.584790766239	0.0999826651532203	0.266694802325219
67516.5	100	540	4	4	2	1	0	1	2	0	2	67.5	22.5	1.07691319147143	-3.04460235220543	0.2	0	0	0	288.784816561267	288.884798251325	0.0999816900584847	0.200025795027614
67604	100	541	4	5	2	1	0	1	2	0	2	157.5	22.5	-0.597018766641232	1.92737798090126	0.25	0	0	0	289.13484231988	289.234822303057	0.099979983177036	0.250044068554416
67700	100	542	4	6	2	1	0	1	2	0	1	112.5	157.5	-0.652985137994814	2.59907874834796	0.283333333333333	0	0	0	289.51818319899	289.618166351924	0.0999831529334188	0.283360895933583
67766.5	100	543	4	7	2	1	0	1	2	0	2	67.5	112.5	1.71121133777711	1.09460759108766	0.166666666666667	0	0	0	289.784851913806	289.88483823603	0.0999863222241402	0.166685561882332
67850	100	544	4	8	2	1	0	1	2	0	1	22.5	157.5	2.69850169298011	-0.938178583661476	0.233333333333333	0	0	0	290.11819816893	290.218177420786	0.0999792518559843	0.233359932899475
67945.75	100	545	4	9	2	1	0	1	2	0	1	22.5	157.5	0.545335650363544	-1.70829285756339	0.283333333333333	0	0	0	290.501545143547	290.601528052473	0.0999829089269042	0.283367722760886
68025	100	546	4	10	2	1	0	1	2	0	2	67.5	112.5	-2.23797697895391	-0.779165645055899	0.216666666666667	0	0	0	290.818216527812	290.918198461644	0.0999819338321686	0.216688475338742
68108.25	100	547	4	11	2	1	0	1	2	0	2	67.5	22.5	1.38137915954788	2.55738607543806	0.233333333333333	0	0	0	291.151554249693	291.251538133947	0.0999838842544705	0.233355788048357
68204	100	548	4	12	2	1	0	1	2	0	1	22.5	67.5	-1.5574907134498	-0.781837072269219	0.283333333333333	0	0	0	291.534903174732	291.634883889463	0.0999807147309184	0.283365040784702
68270.75	100	549	4	13	2	1	0	1	2	0	1	22.5	157.5	0.451752031114	0.986761212378917	0.166666666666667	0	0	0	291.801576765487	291.901556992671	0.0999802271835506	0.166692876024172
68354	100	550	4	14	2	1	0	1	2	0	1	112.5	157.5	0.998144461657133	2.26404381624795	0.233333333333333	0	0	0	292.134920338867	292.234903491568	0.0999831527005881	0.233363346196711
68408.25	100	551	4	15	2	1	0	1	2	0	2	157.5	22.5	2.92681874047484	-2.94865720064347	0.116666666666667	0	0	0	292.351586139994	292.451567586046	0.0999814460519701	0.116682648425922
68487.5	100	552	4	16	2	1	0	1	2	0	1	22.5	67.5	-2.6797751670111	-3.01112099333897	0.216666666666667	0	0	0	292.668271665461	292.768247991567	0.0999763261061162	0.216704079415649
68587.5	100	553	4	17	2	1	0	1	2	0	1	112.5	157.5	-1.94629712899192	1.31484593204871	0.3	0	0	0	293.068276931765	293.168257646263	0.0999807144980878	0.30002894019708
68654	100	554	4	18	2	1	0	1	2	0	1	112.5	67.5	2.66896010629351	-1.62213514380286	0.166666666666667	0	0	0	293.334966857685	293.434956837213	0.0999899795278907	0.16670921142213
68729	100	555	4	19	2	1	0	1	2	0	1	22.5	67.5	0.533586621134628	-0.915433173473809	0.2	0	0	0	293.634964590427	293.734940916533	0.0999763261061162	0.200007753213868
68787.5	100	556	4	20	2	1	0	1	2	0	2	157.5	112.5	-1.23001367603936	-1.09298884890929	0.133333333333333	0	0	0	293.86829867959	293.968282563612	0.0999838840216398	0.133357763057575
68858.25	100	557	4	21	2	1	0	1	2	0	1	22.5	67.5	-0.920551102995355	-0.467407632963596	0.183333333333333	0	0	0	294.151642021257	294.251621273113	0.0999792518559843	0.183359457645565
68912.5	100	558	4	22	2	1	0	1	2	0	1	22.5	67.5	-0.201863484742383	-1.39058315630163	0.116666666666667	0	0	0	294.368314648978	294.468292437959	0.0999777889810503	0.116693375864998
69008.25	100	559	4	23	2	1	0	1	2	0	2	67.5	112.5	2.95658570292028	2.38396779070408	0.283333333333333	0	0	0	294.751649189275	294.85163624282	0.0999870535451919	0.283356751315296
69079	100	560	4	24	2	1	0	1	2	3	2	67.5	22.5	1.19556670724017	-0.00878789090542575	0.183333333333333	0	0	0	295.034998138435	295.134981535142	0.0999833967071027	0.183361895615235
69166.5	100	561	4	25	2	1	0	1	2	3	1	22.5	157.5	1.38987169438159	3.02437858108196	0.25	0	0	0	295.385007805657	295.484991689678	0.0999838840216398	0.250026270514354
69245.75	100	562	4	26	2	1	0	1	2	3	2	157.5	112.5	2.65121334116872	1.82733566148722	0.216666666666667	0	0	0	295.701680409024	295.801663074177	0.0999826651532203	0.216688719345257
69320.75	100	563	4	27	2	1	0	1	2	1	-1	0	135	2.12740550092777	-0.142180897500688	0.2	0	0	0	296.001687893877	296.101672021905	0.0999841280281544	0.200024819700047
69420.75	100	564	4	28	2	1	0	1	2	3	1	22.5	67.5	-1.13564004340917	2.72619483522623	0.3	0	0	0	296.401702912757	296.501680701505	0.0999777887482196	0.300030890852213
69504	100	565	4	29	2	1	0	1	2	3	1	112.5	157.5	-2.04057109541711	1.6914435444045	0.233333333333333	1	0.625487954588607	1	296.73504794878	296.835030613933	0.0999826651532203	0.233367247274145
69554	100	566	4	30	2	1	0	1	2	3	1	112.5	67.5	2.4990206689489	2.85423499080464	0.1	0	0	0	296.935034490656	297.035045681521	0.100011190865189	0.100003876723349
69612.5	100	567	4	31	2	1	0	1	2	3	2	157.5	22.5	0.292073117040569	-2.28378276873851	0.133333333333333	0	0	0	297.1684041759	297.268383915303	0.0999797394033521	0.133358494378626
69666.5	100	568	4	32	2	1	0	1	2	0	1	112.5	67.5	1.62415122729848	-1.25610507969971	0.116666666666667	0	0	0	297.385075340746	297.485056299251	0.0999809585046023	0.116691425442696
69766.5	100	569	4	33	2	1	0	1	2	0	2	157.5	112.5	0.794505297419701	-2.58595219586085	0.3	0	0	0	297.785086458549	297.885067660827	0.0999812022782862	0.300030159298331
69866.5	100	570	4	34	2	1	0	1	2	0	1	112.5	67.5	-1.65309655395596	-3.11688710440372	0.3	0	0	0	298.185070025735	298.28505220334	0.0999821776058525	0.300002364907414
69925	100	571	4	35	2	1	0	1	2	0	1	22.5	157.5	-3.01551723977744	2.33797752696455	0.133333333333333	0	0	0	298.418412648374	298.518395313527	0.0999826651532203	0.133360445033759
69987.5	100	572	4	36	2	1	0	1	2	0	2	157.5	112.5	-2.84192016274594	-1.57247471929063	0.15	0	0	0	298.668430385413	298.768396715401	0.0999663299880922	0.150035071885213
70045.75	100	573	4	37	2	1	0	1	2	0	2	67.5	22.5	-0.327236226855209	-1.13242982610327	0.133333333333333	0	0	0	298.901754966006	299.001739581581	0.0999846155755222	0.133358250604942
70112.5	100	574	4	38	2	1	0	1	2	0	2	157.5	112.5	2.46828030559346	0.692755545143249	0.166666666666667	0	0	0	299.168433676939	299.268415854312	0.0999821773730218	0.166694095358253
70212.5	100	575	4	39	2	1	0	1	2	0	1	22.5	157.5	-1.36574221907695	2.87033859179429	0.3	0	0	0	299.568470394704	299.668452572078	0.0999821773730218	0.300054540392011
70287.5	100	576	4	40	2	1	0	1	2	0	2	157.5	112.5	0.0120395886582543	-1.80913238523122	0.2	0	0	0	299.86847982998	299.968461032258	0.0999812022782862	0.200027257902548
70341.75	100	577	4	41	2	1	0	1	2	0	1	22.5	157.5	-2.51597654701661	-2.81406346471656	0.116666666666667	0	0	0	300.085157334106	300.185134391533	0.0999770574271679	0.116696301847696
70416.75	100	578	4	42	2	1	0	1	2	0	1	112.5	157.5	-1.6227227686195	1.77294872342981	0.2	0	0	0	300.385141656967	300.485144070815	0.100002413848415	0.200007265433669
70500	100	579	4	43	2	1	0	1	2	0	2	157.5	112.5	-2.78470519962314	2.20757703498278	0.233333333333333	0	0	0	300.718500346644	300.818489594618	0.0999892479740083	0.233356275828555
70579.25	100	580	4	44	2	1	0	1	2	0	1	112.5	157.5	-2.33097192864816	1.47973613006994	0.216666666666667	0	0	0	301.035175388213	301.135167074157	0.099991685943678	0.216685793595389
70645.75	100	581	4	45	2	1	0	1	2	0	1	112.5	157.5	-2.83622308319749	-2.85137710279724	0.166666666666667	0	0	0	301.301836300874	301.401842615567	0.100006314693019	0.166669226717204
70725	100	582	4	46	2	1	0	1	2	0	2	157.5	22.5	-2.68012571082117	1.72121720875153	0.216666666666667	0	0	0	301.618515487295	301.718491569394	0.0999760820996016	0.216672871727496
70800	100	583	4	47	2	1	0	1	2	0	1	112.5	67.5	1.98778438367966	-0.382795000734691	0.2	0	0	0	301.918523703469	302.018501004903	0.0999773014336824	0.200032134074718
70858.25	100	584	4	48	2	1	0	1	2	0	2	157.5	22.5	0.474266681618297	-0.409610046556192	0.133333333333333	0	0	0	302.151853404241	302.251834362512	0.0999809582717717	0.133352399338037
70954.25	100	585	4	49	2	1	0	1	2	0	2	157.5	22.5	1.37610754376027	-2.26321123006296	0.283333333333333	0	0	0	302.535200378625	302.635186213301	0.0999858346767724	0.283366016112268
71050	100	586	4	50	2	1	0	1	2	0	2	157.5	112.5	-3.10986202186136	2.7407179569551	0.283333333333333	0	0	0	302.918545402586	303.018523679115	0.0999782765284181	0.283359189284965
71133.25	100	587	4	51	2	1	0	1	2	0	2	67.5	112.5	-1.44115760413255	1.16335767950029	0.233333333333333	0	0	0	303.251907993108	303.351894071558	0.0999860784504563	0.233384313993156
71225	100	588	4	52	2	1	0	1	2	0	2	67.5	22.5	0.895263211692679	1.91650002476375	0.266666666666667	0	0	0	303.618572782492	303.718567881966	0.0999950994737446	0.266678710933775
71283.25	100	589	4	53	2	1	0	1	2	0	1	22.5	67.5	-3.04730106977258	-2.1870012509933	0.133333333333333	0	0	0	303.851927351672	303.951906847302	0.0999794956296682	0.133359469706193
71333.25	100	590	4	54	2	1	0	1	2	0	2	67.5	22.5	-1.11277554557778	2.593049962649	0.1	0	0	0	304.051934373332	304.151914844057	0.0999804707244039	0.100027526030317
71395.75	100	591	4	55	2	1	0	1	2	0	2	157.5	22.5	-2.96834260268372	-2.30351446319557	0.15	0	0	0	304.301941626705	304.401902348967	0.0999607222620398	0.150026782648638
71483.25	100	592	4	56	2	1	0	1	2	0	1	22.5	157.5	-1.12124799917268	-1.23961886516217	0.25	0	0	0	304.651923987083	304.751905920682	0.0999819335993379	0.250021638115868
71575	100	593	4	57	2	1	0	1	2	0	2	157.5	22.5	2.31053664135662	0.016522441902842	0.266666666666667	0	0	0	305.01860267343	305.11858509481	0.0999824213795364	0.266696752747521
71654.25	100	594	4	58	2	1	0	1	2	0	2	67.5	22.5	-2.97141471020646	-0.931942150427771	0.216666666666667	0	0	0	305.335275033023	305.435257210629	0.0999821776058525	0.216689938213676
