onset	duration	total_event_number	stream_number	event_num_per_stream	timing_predictability	target_col	target_ori	n_targets	n_distractors	is_target	ori_pair_num	att_ori	unatt_ori	gabor_phase_att	gabor_phase_unatt	blank_dur	response	rt	correct	time_stimon	time_stimoff	stim_dur	ISI_dur
14508	100	0	0	0	1	1	90	1	2	3	1	112.5	67.5	2.40197412819805	-1.95504250891217	0.2	0	0	0	89.6696231020615	89.7695857747458	0.0999626726843417	-1
14583	100	1	0	1	1	1	90	1	2	3	2	67.5	22.5	-0.694232693817463	-3.00683309099802	0.2	0	0	0	89.969606205821	90.0695669283159	0.0999607224948704	0.200020431075245
14658	100	2	0	2	1	1	90	1	2	3	2	67.5	112.5	-1.44279132239632	-1.56829908043597	0.2	0	0	0	90.2695985748433	90.3695697807707	0.0999712059274316	0.20003164652735
14733	100	3	0	3	1	1	90	1	2	3	2	157.5	112.5	-1.41947093191754	2.34281595940812	0.2	0	0	0	90.5696072787978	90.6695860428736	0.0999787640757859	0.200037498027086
14808	100	4	0	4	1	1	90	1	2	0	2	67.5	112.5	2.23226711088055	-2.27809050125832	0.2	0	0	0	90.8696108628064	90.969590601977	0.0999797391705215	0.200024819932878
14883	100	5	0	5	1	1	90	1	2	0	2	67.5	22.5	1.89562207657934	-0.845552645426269	0.2	0	0	0	91.1696166410111	91.2695993059315	0.0999826649203897	0.200026039034128
14958	100	6	0	6	1	1	90	1	2	0	1	112.5	67.5	1.40847881412337	-1.66954701232634	0.2	0	0	0	91.4696253449656	91.569608497899	0.0999831529334188	0.200026039034128
15033	100	7	0	7	1	1	90	1	2	0	2	67.5	112.5	0.18951486078969	2.13939379885285	0.2	0	0	0	91.769661843311	91.8696111063473	0.0999492630362511	0.200053345412016
15108	100	8	0	8	1	1	90	1	2	0	2	67.5	112.5	-2.42016885354064	1.8493779885119	0.2	0	0	0	92.069641046226	92.1696232240647	0.0999821778386831	0.200029939878732
15183	100	9	0	9	1	1	90	1	2	0	2	157.5	112.5	2.49182609997878	1.65432737108456	0.2	0	0	0	92.3696441426873	92.4696606975049	0.100016554817557	0.200020918622613
15258	100	10	0	10	1	1	90	1	2	0	1	22.5	67.5	-1.91272044497372	0.446370868512463	0.2	0	0	0	92.6696838103235	92.7696706205606	0.0999868102371693	0.200023112818599
15333	100	11	0	11	1	1	90	1	2	0	2	157.5	112.5	0.269152796199848	2.52902618017575	0.2	0	0	0	92.9696625261568	93.0696447035298	0.0999821773730218	0.199991905596107
15408	100	12	0	12	1	1	90	1	2	0	2	67.5	22.5	-0.282770944730923	0.432104799345906	0.2	0	0	0	93.2696753749624	93.3696612091735	0.0999858342111111	0.200030671432614
15483	100	13	0	13	1	1	90	1	2	0	1	22.5	67.5	-1.01006781315132	-1.84400234054811	0.2	0	0	0	93.5696718883701	93.6696760086343	0.100004120264202	0.200010679196566
15558	100	14	0	14	1	1	90	1	2	0	2	67.5	22.5	0.840125981427476	-2.11618588199913	0.2	0	0	0	93.8697274038568	93.970245230943	0.100517827086151	0.200051395222545
15633	100	15	0	15	1	1	90	1	2	0	1	22.5	67.5	-1.97819287999516	0.724495528190922	0.2	0	0	0	94.1697268430144	94.2696965862997	0.0999697432853281	0.199481612071395
15708	100	16	0	16	1	1	90	1	2	0	1	22.5	67.5	-0.946587299362029	-0.778236989229387	0.2	0	0	0	94.4697221373208	94.5696891988628	0.0999670615419745	0.200025551021099
15783	100	17	0	17	1	1	90	1	2	0	2	67.5	112.5	-2.28567822593044	0.324400437147199	0.2	0	0	0	94.7697405936196	94.8697078987025	0.0999673050828278	0.200051394756883
15858	100	18	0	18	1	1	90	1	2	0	1	112.5	67.5	-1.43342656778142	1.34728589769244	0.2	0	0	0	95.0697263795882	95.1697053876705	0.0999790080823004	0.200018480885774
15933	100	19	0	19	1	1	90	1	2	0	1	22.5	157.5	0.690824354176131	2.94438092866167	0.2	0	0	0	95.3697409350425	95.4697309145704	0.0999899795278907	0.200035547371954
16008	100	20	0	20	1	1	90	1	2	0	1	22.5	157.5	1.06777225450365	-0.511440976752882	0.2	0	0	0	95.6697623170912	95.7697476642206	0.0999853471294045	0.200031402520835
16083	100	21	0	21	1	1	90	1	2	0	2	157.5	22.5	-0.999871644721408	0.413780285556326	0.2	0	0	0	95.9697373756208	96.0697341817431	0.0999968061223626	0.199989711400121
16158	100	22	0	22	1	1	90	1	2	0	2	157.5	22.5	0.077338045380003	2.0443010402335	0.2	0	0	0	96.2697553443722	96.3697387408465	0.099983396474272	0.200021162629128
16233	100	23	0	23	1	1	90	1	2	3	2	67.5	112.5	-1.57893273879023	2.15866113069972	0.2	0	0	0	96.5697694122791	96.6697472012602	0.0999777889810503	0.200030671432614
16308	100	24	0	24	1	1	90	1	2	3	1	22.5	157.5	2.88358193802824	0.558633611875615	0.2	0	0	0	96.8697698265314	96.969750053715	0.0999802271835506	0.200022625271231
16383	100	25	0	25	1	1	90	1	2	3	2	157.5	22.5	-3.03577609143122	-0.366139024712552	0.2	0	0	0	97.1697775553912	97.2697660718113	0.099988516420126	0.200027501676232
16458	100	26	0	26	1	1	90	1	2	1	-1	90	45	2.07205352192909	2.32228636439614	0.2	0	0	0	97.4698069831356	97.5697738006711	0.09996681753546	0.200040911324322
16533	100	27	0	27	1	1	90	1	2	3	2	157.5	112.5	-0.108266254513727	-2.27064116230844	0.2	0	0	0	97.7698266585357	97.8697868930176	0.0999602344818413	0.200052857864648
16608	100	28	0	28	1	1	90	1	2	3	2	67.5	22.5	1.08470545459393	-0.073041603476435	0.2	1	0.591976079158485	1	98.0698307300918	98.1698124199174	0.099981689825654	0.20004383707419
16683	100	29	0	29	1	1	90	1	2	3	1	112.5	157.5	-0.0693717660411752	0.743581729579812	0.2	0	0	0	98.3698377273977	98.4697794327512	0.0999417053535581	0.200025307480246
16758	100	30	0	30	1	1	90	1	2	3	1	112.5	67.5	2.48617020550881	-0.522338149921985	0.2	0	0	0	98.6698496011086	98.769830071833	0.0999804707244039	0.200070168357342
16833	100	31	0	31	1	1	90	1	2	0	2	157.5	22.5	-0.328007571902317	0.0521753238899256	0.2	0	0	0	98.9698302671313	99.0698107378557	0.0999804707244039	0.200000195298344
16908	100	32	0	32	1	1	90	1	2	0	1	112.5	67.5	-0.351716847271945	-2.93960262334386	0.2	0	0	0	99.2698370204307	99.3698187102564	0.099981689825654	0.200026282574981
16983	100	33	0	33	1	1	90	1	2	0	2	67.5	22.5	-2.15728923640781	0.0883109975706704	0.2	0	0	0	99.5698408484459	99.6698525268584	0.100011678412557	0.200022138189524
17058	100	34	0	34	1	1	90	1	2	0	2	157.5	112.5	0.549258438862247	-1.4328534971871	0.2	0	0	0	99.8698766152374	99.9698341679759	0.0999575527384877	0.200024088378996
17133	100	35	0	35	1	1	90	1	2	0	1	22.5	67.5	1.26053441267613	-0.80151701572718	0.2	0	0	0	100.169862888753	100.269843847025	0.0999809582717717	0.200028720777482
17208	100	36	0	36	1	1	90	1	2	0	1	22.5	67.5	-0.912465891840987	0.295272296190589	0.2	0	0	0	100.469867204316	100.569876444526	0.100009240210056	0.200023357290775
17283	100	37	0	37	1	1	90	1	2	0	1	22.5	157.5	3.11496928644161	-1.32853161033116	0.2	0	0	0	100.769879077561	100.869865887333	0.099986809771508	0.200002633035183
17358	100	38	0	38	1	1	90	1	2	0	2	157.5	112.5	1.90157406237786	-3.02826770348935	0.2	0	0	0	101.069918014109	101.169894339982	0.0999763258732855	0.200052126776427
17433	100	39	0	39	1	1	90	1	2	0	1	112.5	67.5	-0.325851111722794	-0.995779431031864	0.2	0	0	0	101.369916965719	101.469904994592	0.0999880288727582	0.200022625736892
17508	100	40	0	40	1	1	90	1	2	0	2	67.5	112.5	-1.97604490937582	-0.190338077174332	0.2	0	0	0	101.669928351417	101.769909066148	0.0999807147309184	0.200023356825113
17583	100	41	0	41	1	1	90	1	2	0	1	22.5	157.5	1.71900297275764	2.15151507685376	0.2	0	0	0	101.969900727738	102.069891682826	0.0999909550882876	0.199991661589593
17658	100	42	0	42	1	1	90	1	2	0	1	112.5	157.5	-1.77457762561802	-1.26564114437864	0.2	0	0	0	102.269915283192	102.36989941122	0.0999841280281544	0.200023600365967
17733	100	43	0	43	1	1	90	1	2	0	2	157.5	22.5	-1.21008031162314	-0.272815932571106	0.2	0	0	0	102.569926181808	102.669904945884	0.0999787640757859	0.200026770588011
17808	100	44	0	44	1	1	90	1	2	0	2	67.5	22.5	-3.08460882184256	0.743343754815196	0.2	0	0	0	102.869933422655	102.969919257332	0.0999858346767724	0.200028476770967
17883	100	45	0	45	1	1	90	1	2	0	1	112.5	157.5	0.12262360478111	1.04872298192616	0.2	0	0	0	103.16993725067	103.269923816901	0.0999865662306547	0.200017993338406
17958	100	46	0	46	1	1	90	1	2	0	2	157.5	112.5	-2.28559209763083	-1.61701689286352	0.2	0	0	0	103.469977162313	103.56995421974	0.0999770574271679	0.200053345412016
18033	100	47	0	47	1	1	90	1	2	0	1	112.5	157.5	-0.170898825918958	-1.07820363772259	0.2	0	0	0	103.769955390133	103.869936592411	0.0999812022782862	0.20000117039308
18108	100	48	0	48	1	1	90	1	2	0	1	112.5	67.5	-2.60023503559692	-2.34697685656869	0.2	0	0	0	104.069991644472	104.169975284953	0.0999836404807866	0.200055052060634
18183	100	49	0	49	1	1	90	1	2	0	2	157.5	22.5	-2.21379838432155	2.6896850628153	0.2	0	0	0	104.369999617338	104.469984232914	0.0999846155755222	0.20002433238551
18258	100	50	0	50	1	1	90	1	2	0	1	22.5	67.5	1.33194582929009	-2.38289045890235	0.2	0	0	0	104.669976626057	104.769961972721	0.0999853466637433	0.199992393143475
18333	100	51	0	51	1	1	90	1	2	0	1	112.5	157.5	2.09745486445637	0.0238451572257405	0.2	0	0	0	104.969990449958	105.069956048392	0.0999655984342098	0.200028477236629
18408	100	52	0	52	1	1	90	1	2	0	2	67.5	22.5	-0.953655909068475	1.2464372044007	0.2	0	0	0	105.269996228162	105.369980843738	0.0999846155755222	0.20004017977044
18483	100	53	0	53	1	1	90	1	2	0	2	67.5	22.5	1.87464045714452	2.80022205473835	0.2	0	0	0	105.570007857867	105.67001466034	0.100006802473217	0.200027014128864
18558	100	54	0	54	1	1	90	1	2	0	2	67.5	22.5	-1.6962087337293	-0.844243726582605	0.2	0	0	0	105.870015099179	105.970005566254	0.0999904670752585	0.200000438839197
18633	100	55	0	55	1	1	90	1	2	0	1	112.5	67.5	-0.682554902990212	2.79120948286307	0.2	0	0	0	106.170022828039	106.27000963781	0.099986809771508	0.200017261784524
18708	100	56	0	56	1	1	90	1	2	0	2	67.5	112.5	0.585093165129169	-3.04181562863885	0.2	0	0	0	106.470018853899	106.570007857867	0.0999890039674938	0.200009216088802
18783	100	57	0	57	1	1	90	1	2	0	1	22.5	67.5	-1.87302776357609	2.36552994339778	0.2	0	0	0	106.770042186137	106.870021438226	0.099979252088815	0.200034328270704
18858	100	58	0	58	1	1	90	1	2	0	1	22.5	67.5	1.94378291374718	-2.80872158743251	0.2	0	0	0	107.070047720801	107.17002599733	0.0999782765284181	0.200026282574981
18933	100	59	0	59	1	1	90	1	2	0	1	22.5	157.5	0.0323624878739199	2.80145002906404	0.2	0	0	0	107.370076416992	107.470040308777	0.0999638917855918	0.200050419662148
19008	100	60	0	60	1	1	90	1	2	0	2	157.5	22.5	1.15423598903171	-3.13110582857075	0.2	0	0	0	107.670072442852	107.770049988292	0.099977545440197	0.200032134074718
19083	100	61	0	61	1	1	90	1	2	0	2	67.5	112.5	0.147984108574136	-0.230537918611182	0.2	0	0	0	107.970082365908	108.070079903584	0.099997537676245	0.200032377615571
19158	100	62	0	62	1	1	90	1	2	0	1	112.5	157.5	2.48550504450257	-0.882767239848388	0.2	0	0	0	108.27008668147	108.370061544701	0.0999748632311821	0.200006777886301
19233	100	63	0	63	1	1	90	1	2	0	2	157.5	22.5	-2.00091847976171	2.44982874498551	0.2	0	0	0	108.570092459675	108.67008292675	0.0999904670752585	0.200030914973468
19308	100	64	0	64	1	1	90	1	2	0	1	112.5	67.5	2.80245897052895	-2.31858230905257	0.2	0	0	0	108.870118962135	108.970102846157	0.0999838840216398	0.200036035384983
19383	100	65	0	65	1	1	90	1	2	0	1	112.5	67.5	2.79087023555822	0.596754318186979	0.2	0	0	0	109.170157654677	109.270086437929	0.0999287832528353	0.200054808519781
19458	100	66	0	66	1	1	90	1	2	0	1	22.5	67.5	-2.00351512757932	-1.63366059600921	0.2	0	0	0	109.470107844099	109.570092459675	0.0999846155755222	0.200021406169981
19533	100	67	0	67	1	1	90	1	2	0	2	67.5	112.5	-1.8004258123821	-1.16153889520597	0.2	0	0	0	109.77011679206	109.870129933581	0.100013141520321	0.20002433238551
19608	100	68	0	68	1	1	90	1	2	0	1	22.5	157.5	1.63763692193037	0.678054937111868	0.2	0	0	0	110.070155728608	110.170099140145	0.0999434115365148	0.200025795027614
19683	100	69	0	69	1	1	90	1	2	0	2	157.5	112.5	1.73201350976978	-2.35061536354882	0.2	0	0	0	110.370163213462	110.470127348788	0.0999641353264451	0.200064073316753
19758	100	70	0	70	1	1	90	1	2	0	2	67.5	22.5	2.95271772401743	0.354253434983613	0.2	0	0	0	110.670173868071	110.770151169039	0.0999773009680212	0.200046519283205
19833	100	71	0	71	1	1	90	1	2	0	2	157.5	22.5	-2.22126239994152	1.29552790305153	0.2	0	0	0	110.970152095892	111.070119888522	0.0999677926301956	0.200000926852226
19908	100	72	0	72	1	1	90	1	2	0	2	67.5	112.5	1.14596727140463	-0.101240040340222	0.2	0	0	0	111.270187131129	111.370173453353	0.0999863222241402	0.200067242607474
19983	100	73	0	73	1	1	90	1	2	0	2	67.5	22.5	-2.64645576320719	2.89073295973746	0.2	0	0	0	111.570169016253	111.670152900275	0.0999838840216398	0.199995562899858
20058	100	74	0	74	1	1	90	1	2	3	2	67.5	112.5	-1.05205894322649	-0.220136746526918	0.2	0	0	0	111.870171381161	111.970161116682	0.0999897355213761	0.200018480885774
20133	100	75	0	75	1	1	90	1	2	3	1	22.5	67.5	-0.384362593790539	0.611685189232558	0.2	0	0	0	112.170209586155	112.270165675785	0.099956089630723	0.200048469472677
20208	100	76	0	76	1	1	90	1	2	3	2	67.5	22.5	-2.15271940431852	1.58591803354721	0.2	0	0	0	112.470196834765	112.5701753553	0.0999785205349326	0.200031158979982
20283	100	77	0	77	1	1	90	1	2	2	-1	135	90	1.56443614466914	-1.02563465180886	0.2	0	0	0	112.770201881416	112.8701821086	0.0999802271835506	0.200026526115835
20358	100	78	0	78	1	1	90	1	2	3	1	112.5	67.5	-1.52042640634269	1.0555484832409	0.2	0	0	0	113.070232528262	113.170222020242	0.0999894919805229	0.200050419662148
20433	100	79	0	79	1	1	90	1	2	3	1	112.5	157.5	-1.8153469312468	3.05874066753479	0.2	0	0	0	113.37024488952	113.470208537765	0.0999636482447386	0.200022869277745
20508	100	80	0	80	1	1	90	1	2	3	1	22.5	157.5	2.19316876822279	2.58399007730185	0.2	0	0	0	113.670215803199	113.770233820658	0.100018017459661	0.200007265433669
20583	100	81	0	81	1	1	90	1	2	3	2	157.5	112.5	2.77309400233014	-0.727860327746254	0.2	0	0	0	113.970240354538	114.070242524613	0.100002170074731	0.200006533879787
20658	100	82	0	82	1	1	90	1	2	0	1	112.5	157.5	-1.86419666310566	1.01365121985296	0.2	0	0	0	114.270267832093	114.370250497013	0.0999826649203897	0.200025307480246
20733	100	83	0	83	1	1	90	1	2	0	1	22.5	157.5	-1.90222608016609	0.753216747081386	0.2	0	0	0	114.570277999155	114.670257494785	0.0999794956296682	0.200027502141893
20808	100	84	0	84	1	1	90	1	2	0	2	157.5	112.5	-1.60410474958015	-2.38552130651842	0.2	0	0	0	114.87028377736	114.97025742149	0.0999736441299319	0.200026282574981
20883	100	85	0	85	1	1	90	1	2	0	1	112.5	157.5	1.1409474570531	-1.88890093242483	0.2	0	0	0	115.170291018207	115.270275146235	0.0999841280281544	0.200033596716821
20958	100	86	0	86	1	1	90	1	2	0	1	22.5	157.5	1.69348082809219	2.22860058789584	0.2	0	0	0	115.470300210174	115.570253861602	0.0999536514282227	0.200025063939393
21033	100	87	0	87	1	1	90	1	2	0	1	112.5	157.5	0.676146055525932	0.932647296478759	0.2	0	0	0	115.770273317583	115.87027500011	0.100001682527363	0.20001945598051
21108	100	88	0	88	1	1	90	1	2	0	1	112.5	67.5	0.975792668246182	3.08292594908299	0.2	0	0	0	116.07030323334	116.170299551915	0.0999963185749948	0.200028233230114
21183	100	89	0	89	1	1	90	1	2	0	2	67.5	112.5	-3.06489660621263	-1.36386460864151	0.2	0	0	0	116.37032290874	116.470282899681	0.0999599909409881	0.200023356825113
21258	100	90	0	90	1	1	90	1	2	0	1	112.5	67.5	-0.086026549956296	1.29035919962708	0.2	0	0	0	116.670303818304	116.770284045488	0.0999802271835506	0.200020918622613
21333	100	91	0	91	1	1	90	1	2	0	2	67.5	112.5	-1.34242508759502	1.40423927882261	0.2	0	0	0	116.970313985366	117.070300551131	0.0999865657649934	0.200029939878732
21408	100	92	0	92	1	1	90	1	2	0	1	112.5	67.5	-0.643146289173884	2.49821961457882	0.2	0	0	0	117.270317325369	117.3703051107	0.0999877853319049	0.200016774237156
21483	100	93	0	93	1	1	90	1	2	0	1	112.5	157.5	-2.8757600685647	1.98196179826873	0.2	0	0	0	117.570329199079	117.670341121033	0.10001192195341	0.200024088378996
21558	100	94	0	94	1	1	90	1	2	0	1	22.5	67.5	-1.52214258900921	-2.35331334994603	0.2	0	0	0	117.870362040121	117.970343973953	0.0999819338321686	0.200020919088274
21633	100	95	0	95	1	1	90	1	2	0	2	157.5	22.5	-0.445117186878868	-0.659348689460645	0.2	0	0	0	118.17035392113	118.270325858612	0.0999719374813139	0.200009947177023
21708	100	96	0	96	1	1	90	1	2	3	1	112.5	157.5	2.33658474735564	-1.48124109486188	0.2	0	0	0	118.470356530044	118.570332124829	0.0999755947850645	0.200030671432614
21783	100	97	0	97	1	1	90	1	2	3	2	157.5	112.5	1.57043148269823	2.43137823885451	0.2	0	0	0	118.77036352735	118.870351312682	0.0999877853319049	0.200031402520835
21858	100	98	0	98	1	1	90	1	2	3	1	22.5	157.5	2.8543677160033	-2.11375252458541	0.2	0	0	0	119.070358821657	119.170379277319	0.100020455662161	0.200007508974522
21933	100	99	0	99	1	1	90	1	2	2	-1	135	90	-0.430891573933633	0.826144506128353	0.2	0	0	0	119.37039093161	119.470390663482	0.0999997318722308	0.200011654291302
22008	100	100	0	100	1	1	90	1	2	3	1	112.5	67.5	0.971455948119533	-1.65916899841138	0.2	0	0	0	119.670381593518	119.770366209093	0.0999846155755222	0.19999093003571
22083	100	101	0	101	1	1	90	1	2	3	1	22.5	67.5	-0.790529165296826	1.93832514359327	0.2	0	0	0	119.97039663652	120.070402219892	0.100005583371967	0.2000304274261
22158	100	102	0	102	1	1	90	1	2	3	2	67.5	22.5	-2.39912914556324	2.75170792060529	0.2	0	0	0	120.270430453122	120.370391663164	0.0999612100422382	0.200028233230114
22233	100	103	0	103	1	1	90	1	2	3	2	157.5	22.5	-0.134797658940144	-0.125572193723908	0.2	0	0	0	120.57043988863	120.670420603361	0.0999807147309184	0.200048225466162
22308	100	104	0	104	1	1	90	1	2	0	2	157.5	22.5	1.44469148480327	-0.291305343308889	0.2	0	0	0	120.870421285741	120.970408583526	0.0999872977845371	0.20000068238005
22383	100	105	0	105	1	1	90	1	2	0	1	22.5	157.5	-1.38470367934765	-2.19350081137155	0.2	0	0	0	121.170431940351	121.270410216879	0.0999782765284181	0.200023356825113
22458	100	106	0	106	1	1	90	1	2	0	1	22.5	67.5	-0.922100564335462	2.29078389884437	0.2	0	0	0	121.470433330163	121.570418433286	0.09998510312289	0.20002311328426
22533	100	107	0	107	1	1	90	1	2	0	2	157.5	112.5	-0.371457819690006	-1.51926517506585	0.2	0	0	0	121.770446178969	121.870429331437	0.0999831524677575	0.200027745682746
22608	100	108	0	108	1	1	90	1	2	0	1	112.5	67.5	2.62000400304443	0.24316877093463	0.2	0	0	0	122.07044927543	122.170432184357	0.0999829089269042	0.200019943993539
22683	100	109	0	109	1	1	90	1	2	0	2	67.5	112.5	-2.55003256546264	-2.09073051212098	0.2	0	0	0	122.370487479959	122.470443570055	0.0999560900963843	0.200055295601487
22758	100	110	0	110	1	1	90	1	2	0	1	22.5	157.5	2.70185498217468	0.903918394397632	0.2	0	0	0	122.67047277838	122.770450811367	0.0999780329875648	0.20002920832485
22833	100	111	0	111	1	1	90	1	2	0	2	67.5	22.5	0.78710358231325	-0.474330196967224	0.2	0	0	0	122.970504644327	123.070485603064	0.099980958737433	0.200053832959384
22908	100	112	0	112	1	1	90	1	2	0	2	67.5	22.5	1.00103940503348	1.76052303509752	0.2	0	0	0	123.27050920343	123.370491868816	0.0999826653860509	0.200023600365967
22983	100	113	0	113	1	1	90	1	2	0	1	22.5	157.5	0.199761807330717	1.64546080729642	0.2	0	0	0	123.570518882945	123.670485944021	0.0999670610763133	0.200027014128864
23058	100	114	0	114	1	1	90	1	2	0	2	157.5	112.5	-1.72611883203699	-1.14114301185029	0.2	0	0	0	123.870524173602	123.97048050724	0.0999563336372375	0.200038229580969
23133	100	115	0	115	1	1	90	1	2	0	2	157.5	22.5	-1.55255885435921	-2.34899219841892	0.2	0	0	0	124.170511422213	124.270491892938	0.0999804707244039	0.200030914973468
23208	100	116	0	116	1	1	90	1	2	0	1	22.5	157.5	3.12813120527177	0.0900269112027154	0.2	0	0	0	124.470517687965	124.570494745858	0.0999770578928292	0.200025795027614
23283	100	117	0	117	1	1	90	1	2	0	2	157.5	22.5	-2.46208162364797	-0.720195611153238	0.2	0	0	0	124.77052444173	124.8705217354	0.0999972936697304	0.200029695872217
23358	100	118	0	118	1	1	90	1	2	0	1	22.5	67.5	-0.302909389525982	1.98017050796937	0.2	0	0	0	125.070529488381	125.170545799658	0.100016311276704	0.200007752981037
23433	100	119	0	119	1	1	90	1	2	0	2	67.5	22.5	2.23206548639336	-1.10903068112185	0.2	0	0	0	125.37055184599	125.470549383201	0.0999975372105837	0.200006046332419
23508	100	120	0	120	1	1	90	1	2	0	2	157.5	112.5	0.92457524864244	-0.734636905462705	0.2	0	0	0	125.670576885343	125.770532243419	0.0999553580768406	0.200027502141893
23583.25	100	121	0	121	1	1	90	1	2	0	2	157.5	112.5	-0.362817522722844	-0.683062251488544	0.2	0	0	0	125.970583151095	126.070566304028	0.0999831529334188	0.200050907675177
23658.25	100	122	0	122	1	1	90	1	2	0	2	157.5	22.5	-2.71809804292386	1.68220900040343	0.2	0	0	0	126.270594780799	126.370574032422	0.0999792516231537	0.200028476770967
23733.25	100	123	0	123	1	1	90	1	2	0	1	22.5	157.5	-1.46510057358317	0.997959250048689	0.2	0	0	0	126.570604703855	126.6705566491	0.099951945245266	0.200030671432614
23808.25	100	124	0	124	1	1	90	1	2	0	1	112.5	157.5	0.506552689919041	3.01467460521737	0.2	0	0	0	126.87060853187	126.970589734148	0.0999812022782862	0.200051882769912
23883.25	100	125	0	125	1	1	90	1	2	0	1	112.5	67.5	1.31762922248717	-1.75934926610721	0.2	0	0	0	127.170618454926	127.270570399705	0.0999519447796047	0.200028720777482
23958.25	100	126	0	126	1	1	90	1	2	0	2	157.5	112.5	-2.7372310064724	2.75771525658384	0.2	0	0	0	127.470598632935	127.57058007922	0.0999814462848008	0.200028233230114
24033.25	100	127	0	127	1	1	90	1	2	0	2	67.5	112.5	-0.311512375962248	0.280474369823742	0.2	0	0	0	127.770601972938	127.870590489823	0.0999885168857872	0.200021893717349
24108.25	100	128	0	128	1	1	90	1	2	0	1	112.5	157.5	2.21834224828405	-0.620781269577186	0.2	0	0	0	128.070616040844	128.170599193778	0.0999831529334188	0.200025551021099
24183.25	100	129	0	129	1	1	90	1	2	0	1	112.5	157.5	-1.01595886034108	0.458669097172245	0.2	0	0	0	128.370623769704	128.470612774137	0.0999890044331551	0.200024575926363
24258.25	100	130	0	130	1	1	90	1	2	0	1	112.5	157.5	-0.348366216406337	-0.493133813555138	0.2	0	0	0	128.670658561401	128.77062513493	0.0999665735289454	0.200045787263662
24333.25	100	131	0	131	1	1	90	1	2	0	2	157.5	112.5	1.77263163458709	1.02777772785468	0.2	0	0	0	128.970663852058	129.070616284851	0.0999524327926338	0.200038717128336
24408.25	100	132	0	132	1	1	90	1	2	3	1	112.5	157.5	-1.61535834063033	-2.39775297458152	0.2	0	0	0	129.270674994215	129.370656684041	0.099981689825654	0.200058709364384
24483.25	100	133	0	133	1	1	90	1	2	3	2	157.5	22.5	-2.14922048550846	0.700179697348468	0.2	0	0	0	129.570679797325	129.670666607097	0.099986809771508	0.20002311328426
24558.25	100	134	0	134	1	1	90	1	2	3	1	22.5	157.5	1.68130611604248	2.5069484334809	0.2	0	0	0	129.870692402124	129.970653855707	0.0999614535830915	0.200025795027614
24633.25	100	135	0	135	1	1	90	1	2	3	1	22.5	67.5	-1.8648564887723	-2.67229732923893	0.2	0	0	0	130.170698424336	130.270678651519	0.0999802271835506	0.200044568628073
25945.75	100	136	1	0	1	2	0	1	1	3	2	157.5	22.5	-0.94279855733896	-2.55660313991174	0.2	0	0	0	135.420840016566	135.520820487756	0.0999804711900651	-1
26020.75	100	137	1	1	1	2	0	1	1	3	2	67.5	112.5	-2.26228508293102	-0.910716085058395	0.2	0	0	0	135.720867737662	135.820835286751	0.0999675490893424	0.200047249905765
26095.75	100	138	1	2	1	2	0	1	1	3	2	67.5	22.5	1.50648150941705	3.11975613955205	0.2	0	0	0	136.02085620584	136.120817902964	0.0999616971239448	0.200020919088274
26170.75	100	139	1	3	1	2	0	1	1	3	1	22.5	67.5	2.25431431614628	0.221304375228947	0.2	0	0	0	136.320863934234	136.420844161417	0.0999802271835506	0.200046031270176
26245.75	100	140	1	4	1	2	0	1	1	0	2	67.5	22.5	-0.415265300595007	-2.59502720432621	0.2	0	0	0	136.620846306905	136.720854816027	0.100008509121835	0.200002145487815
26320.75	100	141	1	5	1	2	0	1	1	0	1	112.5	157.5	-2.19772954996488	-0.497465422672926	0.2	0	0	0	136.92085598642	137.020844015293	0.0999880288727582	0.20000117039308
26395.75	100	142	1	6	1	2	0	1	1	0	2	157.5	22.5	1.86855801418475	1.58169977005977	0.2	0	0	0	137.220860789064	137.320850037038	0.0999892479740083	0.200016773771495
26470.75	100	143	1	7	1	2	0	1	1	0	2	67.5	112.5	-0.379324036527071	-0.661312188669655	0.2	0	0	0	137.520893874113	137.62088677939	0.0999929052777588	0.20004383707419
26545.75	100	144	1	8	1	2	0	1	1	0	1	22.5	157.5	1.6737416925424	1.31862592019488	0.2	0	0	0	137.820875271689	137.920881830156	0.100006558466703	0.199988492298871
26620.75	100	145	1	9	1	2	0	1	1	0	1	22.5	67.5	-0.316911293834651	-2.4083740432518	0.2	0	0	0	138.120896897279	138.220865909476	0.0999690121971071	0.200015067122877
26695.75	100	146	1	10	1	2	0	1	1	0	1	22.5	67.5	1.46805468649565	1.29028805357654	0.2	0	0	0	138.420903894585	138.520902407356	0.0999985127709806	0.200037985108793
26770.75	100	147	1	11	1	2	0	1	1	0	2	157.5	112.5	-1.86070114212276	-2.47162098790698	0.2	0	0	0	138.720899189357	138.820868445095	0.0999692557379603	0.199996782001108
26845.75	100	148	1	12	1	2	0	1	1	0	2	157.5	112.5	-0.472736438295496	2.96535135811759	0.2	0	0	0	139.020911306608	139.120894703083	0.099983396474272	0.200042861513793
26920.75	100	149	1	13	1	2	0	1	1	0	2	67.5	112.5	2.340308543865	-3.10591924129311	0.2	0	0	0	139.320912208874	139.42092949478	0.100017285905778	0.200017505791038
26995.75	100	150	1	14	1	2	0	1	1	0	1	112.5	67.5	2.63870537229078	0.0465436437461575	0.2	0	0	0	139.620949438307	139.720906747505	0.0999573091976345	0.200019943527877
27070.75	100	151	1	15	1	2	0	1	1	0	2	157.5	22.5	-1.66231322202115	1.70269803644426	0.2	0	0	0	139.920965456869	140.020924716257	0.0999592593871057	0.200058709364384
27145.75	100	152	1	16	1	2	0	1	1	0	2	67.5	22.5	-3.03731033962572	2.77757623627389	0.2	0	0	0	140.220966358669	140.320954387542	0.0999880288727582	0.200041642412543
27220.75	100	153	1	17	1	2	0	1	1	0	1	22.5	157.5	2.60946301743376	2.28033374019107	0.2	0	0	0	140.520979207475	140.62094017351	0.0999609660357237	0.200024819932878
27295.75	100	154	1	18	1	2	0	1	1	0	2	67.5	22.5	0.177126424008014	2.96476759143296	0.2	0	0	0	140.820957191754	140.920974721666	0.100017529912293	0.20001701824367
27370.75	100	155	1	19	1	2	0	1	1	0	2	157.5	112.5	1.59387300773255	2.18458525964555	0.2	0	0	0	141.120969796553	141.220945391338	0.0999755947850645	0.199995074886829
27445.75	100	156	1	20	1	2	0	1	1	0	1	22.5	157.5	0.529033964406899	2.76675164642728	0.2	0	0	0	141.421001418494	141.520986522082	0.0999851035885513	0.20005602715537
27520.75	100	157	1	21	1	2	0	1	1	0	2	67.5	22.5	-1.2489127200263	-2.99158649092087	0.2	0	0	0	141.721008659806	141.820997420233	0.0999887604266405	0.200022137723863
27595.75	100	158	1	22	1	2	0	1	1	0	1	22.5	157.5	-2.83364697711425	-0.718182195642965	0.2	0	0	0	142.021005660761	142.121006855741	0.100001194979995	0.200008240528405
27670.75	100	159	1	23	1	2	0	1	1	0	2	67.5	22.5	2.29117660601902	-2.7742361946083	0.2	0	0	0	142.320969991386	142.42098386446	0.100013873074204	0.199963135644794
27745.75	100	160	1	24	1	2	0	1	1	0	1	112.5	157.5	2.77442539082486	-2.58609660616714	0.2	0	0	0	142.621010634582	142.72098476626	0.0999741316772997	0.200026770122349
27820.75	100	161	1	25	1	2	0	1	1	0	1	112.5	157.5	2.85002592135427	-0.685556488039559	0.2	0	0	0	142.921013731044	143.02101321891	0.0999994878657162	0.200028964783996
27895.75	100	162	1	26	1	2	0	1	1	0	2	157.5	112.5	-2.41245580497471	1.51016538349043	0.2	0	0	0	143.221024385653	143.321003881283	0.0999794956296682	0.200011166743934
27970.75	100	163	1	27	1	2	0	1	1	0	2	67.5	22.5	-0.601757644783793	-0.812596901012562	0.2	0	0	0	143.521034796257	143.621019411832	0.0999846155755222	0.200030914973468
28045.75	100	164	1	28	1	2	0	1	1	0	2	157.5	112.5	-2.38951487152189	0.815814219274917	0.2	0	0	0	143.821046181954	143.921043963637	0.0999977816827595	0.200026770122349
28120.75	100	165	1	29	1	2	0	1	1	0	2	157.5	22.5	2.41424083855704	-1.80141877812636	0.2	0	0	0	144.121066832915	144.221058518626	0.0999916857108474	0.200022869277745
28195.75	100	166	1	30	1	2	0	1	1	0	2	157.5	22.5	0.537625035096644	-2.47337606447589	0.2	0	0	0	144.421083095018	144.521064540837	0.0999814458191395	0.200024576392025
28270.75	100	167	1	31	1	2	0	1	1	0	1	112.5	157.5	-0.921476151665936	-2.59200762477522	0.2	0	0	0	144.721091067418	144.82107202569	0.0999809582717717	0.200026526581496
28345.75	100	168	1	32	1	2	0	1	1	0	1	22.5	157.5	-1.60622920166286	-2.8747463816677	0.2	0	0	0	145.021074171644	145.121059762314	0.0999855906702578	0.200002145953476
28420.75	100	169	1	33	1	2	0	1	1	0	2	67.5	22.5	2.81023668299278	-1.98232844080236	0.2	0	0	0	145.321080680937	145.421059445478	0.0999787645414472	0.200020918622613
28495.75	100	170	1	34	1	2	0	1	1	0	1	112.5	157.5	-1.49976002099916	1.36189864439446	0.2	0	0	0	145.621116448194	145.721072537825	0.099956089630723	0.200057002715766
28570.75	100	171	1	35	1	2	0	1	1	0	1	22.5	67.5	1.60049536363961	1.44934869845703	0.2	0	0	0	145.921125639696	146.021080998238	0.0999553585425019	0.200053101871163
28645.75	100	172	1	36	1	2	0	1	1	0	1	22.5	67.5	-1.42089709620028	2.54901400412324	0.2	0	0	0	146.221103623509	146.321088727098	0.0999851035885513	0.200022625271231
28720.75	100	173	1	37	1	2	0	1	1	0	1	112.5	67.5	-1.11093704079604	0.447911780332413	0.2	0	0	0	146.521108426619	146.621100600343	0.0999921737238765	0.200019699521363
28795.75	100	174	1	38	1	2	0	1	1	0	2	157.5	22.5	-2.25998276357404	-0.265114526439266	0.2	0	0	0	146.82111932477	146.921101258602	0.0999819338321686	0.200018724426627
28870.75	100	175	1	39	1	2	0	1	1	0	1	22.5	67.5	-1.1979717775551	1.04048593422226	0.2	0	0	0	147.121127541177	147.221111181658	0.0999836404807866	0.200026282574981
28945.75	100	176	1	40	1	2	0	1	1	0	2	157.5	112.5	2.47692299927905	-1.16696962952779	0.2	0	0	0	147.421135757584	147.521120617166	0.0999848595820367	0.200024575926363
29020.75	100	177	1	41	1	2	0	1	1	0	1	112.5	157.5	1.92036218047846	-2.27214124228887	0.2	0	0	0	147.721141048241	147.821127614472	0.0999865662306547	0.200020431075245
29095.75	100	178	1	42	1	2	0	1	1	0	1	22.5	67.5	1.31489781003318	0.427089025231373	0.2	0	0	0	148.021153897047	148.121133636683	0.0999797396361828	0.200026282574981
29170.75	100	179	1	43	1	2	0	1	1	0	1	112.5	67.5	2.85893016200411	1.83106281712174	0.2	0	0	0	148.321161869913	148.42114477884	0.0999829089269042	0.200028233230114
29245.75	100	180	1	44	1	2	0	1	1	0	1	22.5	67.5	-0.20303824525817	-2.6996265971408	0.2	0	0	0	148.621168623213	148.721147143748	0.0999785205349326	0.200023844372481
29320.75	100	181	1	45	1	2	0	1	1	0	2	67.5	22.5	0.197771049305732	0.210924129591778	0.2	0	0	0	148.921184153762	149.021191687789	0.1000075340271	0.200037010014057
29395.75	100	182	1	46	1	2	0	1	1	0	1	22.5	67.5	2.20894510742757	-1.21013225056487	0.2	0	0	0	149.221216263715	149.321194296237	0.0999780325219035	0.200024575926363
29470.75	100	183	1	47	1	2	0	1	1	0	2	67.5	112.5	-0.925327467188594	-1.62558763524529	0.2	0	0	0	149.521196685731	149.621203244198	0.100006558466703	0.20000238949433
29545.75	100	184	1	48	1	2	0	1	1	0	2	157.5	112.5	-0.144789350700208	2.93071023766407	0.2	0	0	0	149.821202707943	149.921181716025	0.0999790080823004	0.199999463744462
29620.75	100	185	1	49	1	2	0	1	1	0	2	67.5	22.5	0.549236634571112	-2.499842917535	0.2	0	0	0	150.121194101404	150.221188225783	0.099994124379009	0.200012385379523
29695.75	100	186	1	50	1	2	0	1	1	0	1	22.5	157.5	0.427462715717176	1.71725531819196	0.2	0	0	0	150.42120402446	150.521203024779	0.0999990003183484	0.200015798676759
29770.75	100	187	1	51	1	2	0	1	1	0	2	157.5	22.5	-2.56862595637718	1.04283182634425	0.2	0	0	0	150.721224431414	150.821240498219	0.100016066804528	0.200021406635642
29845.75	100	188	1	52	1	2	0	1	1	3	2	157.5	22.5	1.25426879346569	-2.65766481141446	0.2	0	0	0	151.021266780794	151.121242619585	0.099975838791579	0.200026282574981
29920.75	100	189	1	53	1	2	0	1	1	3	1	112.5	157.5	-2.99953384887647	-2.03527398156729	0.2	0	0	0	151.321241839323	151.421226942446	0.09998510312289	0.199999219737947
29995.75	100	190	1	54	1	2	0	1	1	3	2	67.5	112.5	-2.40968334066268	-0.895084299122304	0.2	0	0	0	151.621278825216	151.721233452205	0.0999546269886196	0.200051882769912
30070.75	100	191	1	55	1	2	0	1	1	1	-1	0	135	1.24044693469993	-2.98767029063956	0.2	0	0	0	151.921259491239	152.02124630101	0.099986809771508	0.200026039034128
30145.75	100	192	1	56	1	2	0	1	1	3	2	67.5	22.5	-1.0099755631398	1.87731551976375	0.2	0	0	0	152.22126453789	152.321245740168	0.0999812022782862	0.200018236879259
30220.75	100	193	1	57	1	2	0	1	1	3	1	112.5	67.5	2.37350504329319	-0.826997535475505	0.2	0	0	0	152.521276167594	152.621254200581	0.0999780329875648	0.2000304274261
30295.75	100	194	1	58	1	2	0	1	1	3	1	22.5	157.5	1.16467447015381	-1.24376176798277	0.2	1	0.792170103173703	1	152.821281945799	152.921267780475	0.0999858346767724	0.200027745217085
30370.75	100	195	1	59	1	2	0	1	1	3	1	22.5	67.5	0.333873072197866	-0.890573550466603	0.2	0	0	0	153.121317713056	153.221284286585	0.0999665735289454	0.200049932580441
30445.75	100	196	1	60	1	2	0	1	1	0	2	157.5	112.5	-2.46783705343949	0.661177860506891	0.2	0	0	0	153.421323734801	153.52128128754	0.0999575527384877	0.200039448216558
30520.75	100	197	1	61	1	2	0	1	1	0	2	67.5	22.5	-1.98199407968825	1.78940118893759	0.2	0	0	0	153.721308545675	153.821303401142	0.0999948554672301	0.200027258135378
30595.75	100	198	1	62	1	2	0	1	1	0	1	112.5	157.5	1.66010184110633	3.05002763570694	0.2	0	0	0	154.021312373225	154.121325514745	0.100013141520321	0.200008972082287
30670.75	100	199	1	63	1	2	0	1	1	0	1	112.5	67.5	-2.55348685953087	1.75363732330785	0.2	0	0	0	154.321325709578	154.421302035917	0.0999763263389468	0.200000194832683
30745.75	100	200	1	64	1	2	0	1	1	0	2	67.5	112.5	-2.44260458699016	-1.53257901978742	0.2	0	0	0	154.621328562498	154.721304644831	0.0999760823324323	0.200026526581496
30820.75	100	201	1	65	1	2	0	1	1	0	2	157.5	22.5	1.99222445810504	-2.01734117785515	0.2	0	0	0	154.921368474141	155.021323832683	0.0999553585425019	0.200063829310238
30895.75	100	202	1	66	1	2	0	1	1	0	2	157.5	22.5	0.598868236787514	-0.088646060696028	0.2	0	0	0	155.221382298041	155.32133399928	0.0999517012387514	0.20005846535787
30970.75	100	203	1	67	1	2	0	1	1	0	1	112.5	67.5	1.29558922737394	-0.422841112801377	0.2	0	0	0	155.521355649456	155.621335145086	0.0999794956296682	0.200021650176495
31045.75	100	204	1	68	1	2	0	1	1	0	2	157.5	112.5	1.1921085863652	1.73674995897939	0.2	0	0	0	155.821390928701	155.92137627583	0.0999853471294045	0.200055783614516
31120.75	100	205	1	69	1	2	0	1	1	0	1	112.5	157.5	2.37560266189589	1.3225754567716	0.2	0	0	0	156.121400120668	156.221358648501	0.0999585278332233	0.200023844838142
31195.75	100	206	1	70	1	2	0	1	1	0	1	22.5	157.5	-2.23598187134256	2.06435394780728	0.2	0	0	0	156.421410774812	156.521370278206	0.0999595033936203	0.200052126310766
31270.75	100	207	1	71	1	2	0	1	1	0	2	67.5	112.5	0.385819091105765	-1.33180453505749	0.2	0	0	0	156.721370473038	156.82136996137	0.0999994883313775	0.200000194832683
31345.75	100	208	1	72	1	2	0	1	1	0	2	67.5	22.5	-0.524493858727543	2.83257682596717	0.2	0	0	0	157.021402826998	157.121379152872	0.0999763258732855	0.2000328656286
31420.75	100	209	1	73	1	2	0	1	1	0	1	22.5	157.5	-0.630284408053321	-1.08972907334261	0.2	0	0	0	157.321407629643	157.421386637725	0.0999790080823004	0.200028476770967
31495.75	100	210	1	74	1	2	0	1	1	3	2	157.5	22.5	-0.756125359555186	-0.405007153774673	0.2	0	0	0	157.621414626949	157.721403143834	0.0999885168857872	0.200027989223599
31570.75	100	211	1	75	1	2	0	1	1	3	2	67.5	112.5	2.07283249996984	-2.44781483340966	0.2	0	0	0	157.921415285673	158.021402338985	0.0999870533123612	0.20001214183867
31645.75	100	212	1	76	1	2	0	1	1	3	1	22.5	157.5	-2.55531632201973	1.32117197125958	0.2	0	0	0	158.221434961073	158.32143761823	0.100002657156438	0.200032622087747
31720.75	100	213	1	77	1	2	0	1	1	2	-1	45	0	1.00155416905744	2.02804150811802	0.2	0	0	0	158.521442933474	158.621459000744	0.10001606727019	0.200005315244198
31795.75	100	214	1	78	1	2	0	1	1	3	2	67.5	22.5	3.03053736527784	-1.87726795996641	0.2	0	0	0	158.821472117677	158.921453563496	0.0999814458191395	0.200013116933405
31870.75	100	215	1	79	1	2	0	1	1	3	2	157.5	112.5	-3.11336327634065	0.123717393311	0.2	0	0	0	159.121478870977	159.221448858269	0.0999699872918427	0.200025307480246
31945.75	100	216	1	80	1	2	0	1	1	3	1	22.5	67.5	-1.26250479758288	1.62759146288947	0.2	0	0	0	159.421464169398	159.521447078325	0.0999829089269042	0.200015311129391
32020.75	100	217	1	81	1	2	0	1	1	3	1	112.5	67.5	-2.1249757206893	-0.128360804027309	0.2	0	0	0	159.721472385805	159.821454319172	0.0999819333665073	0.200025307480246
32095.75	100	218	1	82	1	2	0	1	1	0	2	67.5	112.5	-1.72531581332707	-2.42621404385275	0.2	0	0	0	160.0215118099	160.121454977896	0.0999431679956615	0.200057490728796
32170.75	100	219	1	83	1	2	0	1	1	0	2	157.5	22.5	-0.0591111036934922	1.77789644652184	0.2	0	0	0	160.321487843059	160.421469776891	0.0999819338321686	0.200032865162939
32245.75	100	220	1	84	1	2	0	1	1	0	2	67.5	112.5	1.76012397012472	-1.90182404623238	0.2	0	0	0	160.62149386527	160.721480675042	0.099986809771508	0.200024088378996
32320.75	100	221	1	85	1	2	0	1	1	0	2	157.5	112.5	-2.90219197966117	2.32150546140251	0.2	0	0	0	160.921501837671	161.021493767854	0.0999919301830232	0.200021162629128
32395.75	100	222	1	86	1	2	0	1	1	0	2	67.5	112.5	1.91458753573539	3.02982665359694	0.2	0	0	0	161.221511029638	161.321492963005	0.0999819333665073	0.200017261784524
32470.75	100	223	1	87	1	2	0	1	1	0	1	22.5	67.5	-0.528942377451812	-2.61775890040099	0.2	0	0	0	161.521522415336	161.621499960311	0.0999775449745357	0.200029452331364
32545.75	100	224	1	88	1	2	0	1	1	0	1	112.5	67.5	0.955139678224717	-0.952990273172748	0.2	0	0	0	161.821524292696	161.921505251434	0.099980958737433	0.20002433238551
32620.75	100	225	1	89	1	2	0	1	1	0	2	157.5	112.5	0.69132438193922	2.28977943265787	0.2	0	0	0	162.121534703299	162.221497375984	0.0999626726843417	0.200029451865703
32695.75	100	226	1	90	1	2	0	1	1	0	1	112.5	67.5	0.648180826730979	-2.12357167432631	0.2	0	0	0	162.421567544341	162.521534118336	0.0999665739946067	0.200070168357342
32770.75	100	227	1	91	1	2	0	1	1	0	2	67.5	22.5	-2.59200633240762	-1.68572540721399	0.2	0	0	0	162.721578930505	162.821531363297	0.0999524327926338	0.200044812168926
32845.75	100	228	1	92	1	2	0	1	1	0	2	157.5	112.5	0.0343381433251615	1.56814644147294	0.2	0	0	0	163.021567154676	163.121538360603	0.0999712059274316	0.200035791378468
32920.75	100	229	1	93	1	2	0	1	1	0	1	112.5	157.5	-1.31905255727438	0.731354845168646	0.2	0	0	0	163.321592925116	163.421553159598	0.0999602344818413	0.200054564513266
32995.75	100	230	1	94	1	2	0	1	1	0	2	157.5	112.5	2.05267722055491	-2.56984083563539	0.2	0	0	0	163.621601141524	163.721583806444	0.0999826649203897	0.200047981925309
33070.75	100	231	1	95	1	2	0	1	1	0	1	22.5	157.5	1.64749578272885	-2.59967586243006	0.2	0	0	0	163.921585220844	164.021572762169	0.0999875413253903	0.200001414399594
33145.75	100	232	1	96	1	2	0	1	1	0	2	157.5	22.5	-2.40906384748678	1.1438983240117	0.2	0	0	0	164.22162488848	164.321601702366	0.0999768138863146	0.200052126310766
33220.75	100	233	1	97	1	2	0	1	1	0	2	67.5	22.5	2.46428538448205	0.41613962289915	0.2	0	0	0	164.521603847854	164.621586025227	0.0999821773730218	0.200002145487815
33295.75	100	234	1	98	1	2	0	1	1	0	1	112.5	67.5	-1.71378041270854	-2.04087973072871	0.2	0	0	0	164.821605968755	164.921593754087	0.0999877853319049	0.200019943527877
33370.75	100	235	1	99	1	2	0	1	1	0	1	112.5	157.5	-2.70883022464707	0.427360735051357	0.2	0	0	0	165.1216424671	165.221600263845	0.0999577967450023	0.20004871301353
33445.75	100	236	1	100	1	2	0	1	1	0	1	22.5	67.5	-2.68016165212399	1.01176785916753	0.2	0	0	0	165.421630935278	165.521610674448	0.0999797391705215	0.200030671432614
33520.75	100	237	1	101	1	2	0	1	1	0	1	112.5	157.5	1.30241898158941	-2.29230136981805	0.2	0	0	0	165.721629398875	165.821618159302	0.0999887604266405	0.200018724426627
33595.75	100	238	1	102	1	2	0	1	1	0	1	22.5	157.5	-1.50299352244369	-1.59499939528418	0.2	0	0	0	166.02164517343	166.121624181513	0.0999790080823004	0.200027014128864
33670.75	100	239	1	103	1	2	0	1	1	0	1	112.5	157.5	1.86928213930261	0.994970049081	0.2	0	0	0	166.321647294797	166.421630447265	0.0999831524677575	0.20002311328426
33745.75	100	240	1	104	1	2	0	1	1	0	1	112.5	67.5	1.94170246000375	-0.367982595283531	0.2	0	0	0	166.621657217853	166.721633056179	0.0999758383259177	0.200026770588011
33821	100	241	1	105	1	2	0	1	1	0	1	22.5	157.5	2.72119114745264	-1.75341914365324	0.2	0	0	0	166.921658851206	167.021652488038	0.0999936368316412	0.200025795027614
33895.75	100	242	1	106	1	2	0	1	1	0	1	112.5	67.5	-2.35402446928561	0.307302162030874	0.2	0	0	0	167.221674869768	167.321655584034	0.0999807142652571	0.200022381730378
33970.75	100	243	1	107	1	2	0	1	1	0	1	22.5	157.5	-1.31994217387196	0.787838436224285	0.2	0	0	0	167.521683573723	167.621664776001	0.0999812022782862	0.200027989689261
34045.75	100	244	1	108	1	2	0	1	1	0	2	157.5	22.5	-1.62945888940842	2.43867672111792	0.2	0	0	0	167.821690571029	167.921780268662	0.100089697632939	0.200025795027614
34121	100	245	1	109	1	2	0	1	1	0	2	67.5	112.5	0.67456903422414	-2.96432199487847	0.2	0	0	0	168.121728044469	168.221709002741	0.0999809582717717	0.199947775807232
34196	100	246	1	110	1	2	0	1	1	0	2	157.5	22.5	2.72382577189958	-0.994184715613262	0.2	0	0	0	168.421735041775	168.521714049857	0.0999790080823004	0.200026039034128
34271	100	247	1	111	1	2	0	1	1	0	2	67.5	112.5	-0.674552746810154	0.0313999240877756	0.2	0	0	0	168.721747403033	168.821696910076	0.0999495070427656	0.200033353175968
34346	100	248	1	112	1	2	0	1	1	0	1	112.5	67.5	-2.09638866629232	2.14303843307175	0.2	0	0	0	169.021733676549	169.12172926357	0.0999955870211124	0.200036766473204
34421	100	249	1	113	1	2	0	1	1	0	2	157.5	22.5	-2.41297596508672	-0.781360772382975	0.2	0	0	0	169.321754814591	169.421706028283	0.0999512136913836	0.200025551021099
34496	100	250	1	114	1	2	0	1	1	0	1	112.5	67.5	-1.79759922499599	-0.954747422034111	0.2	0	0	0	169.621737918817	169.721722777933	0.0999848591163754	0.200031890533864
34571	100	251	1	115	1	2	0	1	1	0	1	112.5	67.5	2.47816987561364	1.14681439308305	0.2	0	0	0	169.921734188218	170.021728556603	0.0999943683855236	0.200011410284787
34646	100	252	1	116	1	2	0	1	1	0	1	22.5	157.5	-0.543156431470787	-0.781970420288687	0.2	0	0	0	170.221756545827	170.321746037807	0.0999894919805229	0.200027989223599
34721	100	253	1	117	1	2	0	1	1	0	1	22.5	67.5	-0.402709126142887	2.42492547619257	0.2	0	0	0	170.521760617383	170.621747914702	0.0999872973188758	0.200014579575509
34796	100	254	1	118	1	2	0	1	1	0	2	67.5	112.5	-0.756687903293439	2.83551619381418	0.2	0	0	0	170.821765420493	170.921758569311	0.0999931488186121	0.200017505791038
34871	100	255	1	119	1	2	0	1	1	0	1	22.5	67.5	0.203506639725723	-3.00724499758345	0.2	0	0	0	171.121781195048	171.221763859969	0.0999826649203897	0.200022625736892
34946	100	256	1	120	1	2	0	1	1	0	1	22.5	67.5	-1.66203527723472	-1.4864652480705	0.2	0	0	0	171.421771369409	171.521773539484	0.100002170074731	0.200007509440184
35021	100	257	1	121	1	2	0	1	1	0	1	112.5	157.5	-2.08541526505364	1.84371987188641	0.2	0	0	0	171.721797383856	171.821773953736	0.0999765698798001	0.200023844372481
35096	100	258	1	122	1	2	0	1	1	0	2	67.5	112.5	1.87641477151835	0.785501987371269	0.2	0	0	0	172.021799505223	172.121785339899	0.0999858346767724	0.20002555148676
35171	100	259	1	123	1	2	0	1	1	0	2	67.5	112.5	-1.76685744672975	3.02825991686902	0.2	0	0	0	172.321841854602	172.421795262955	0.0999534083530307	0.200056514702737
35246	100	260	1	124	1	2	0	1	1	3	1	112.5	67.5	1.83323818570935	1.63929102214869	0.2	0	0	0	172.621816425584	172.721799090505	0.0999826649203897	0.200021162629128
35321	100	261	1	125	1	2	0	1	1	3	2	157.5	112.5	0.964333807100004	-2.32681911722029	0.2	0	0	0	172.921829761937	173.021812426858	0.0999826649203897	0.200030671432614
35396	100	262	1	126	1	2	0	1	1	3	1	112.5	157.5	-0.946861811784685	-2.37053324937327	0.2	0	0	0	173.221837246791	173.321818936616	0.099981689825654	0.200024819932878
35471	100	263	1	127	1	2	0	1	1	3	1	22.5	157.5	2.93821220676385	-2.59943247644054	0.2	0	0	0	173.521843269002	173.621826421469	0.0999831524677575	0.20002433238551
50125.5	100	264	2	0	2	1	0	2	2	3	2	157.5	112.5	-2.69060929443355	1.83376121920035	0.133333333333333	0	0	0	232.140084226616	232.240107120015	0.100022893399	-1
50192	100	265	2	1	2	1	0	2	2	3	2	157.5	22.5	0.00175834794617202	-0.433893768101752	0.166666666666667	0	0	0	232.40681950096	232.506753891706	0.099934390746057	0.166712380945683
50292	100	266	2	2	2	1	0	2	2	3	1	112.5	157.5	-1.27517976933492	1.52950698682343	0.3	0	0	0	232.806784295011	232.906769885682	0.0999855906702578	0.300030403304845
50383.75	100	267	2	3	2	1	0	2	2	3	2	67.5	112.5	-1.75039448229568	2.80175641315996	0.266666666666667	0	0	0	233.173488825094	233.273470515385	0.0999816902913153	0.266718939412385
50446.25	100	268	2	4	2	1	0	2	2	0	2	67.5	22.5	3.08066787763753	2.73441701226068	0.15	0	0	0	233.423474623356	233.523480450269	0.10000582691282	0.150004107970744
50542	100	269	2	5	2	1	0	2	2	0	2	67.5	22.5	0.941489825139391	-1.88373068052097	0.283333333333333	0	0	0	233.806834032293	233.906820842065	0.099986809771508	0.283353582024574
50638	100	270	2	6	2	1	0	2	2	0	1	112.5	157.5	-2.13711291111637	1.10168404714439	0.283333333333333	0	0	0	234.190135901794	234.290137584321	0.100001682527363	0.28331505972892
50700.5	100	271	2	7	2	1	0	2	2	0	1	112.5	157.5	-0.12281155354608	0.542180234468801	0.15	0	0	0	234.440164366737	234.540137035772	0.0999726690351963	0.150026782415807
50792	100	272	2	8	2	1	0	2	2	0	1	112.5	67.5	-2.06351754228349	2.04649434003232	0.266666666666667	0	0	0	234.806864995975	234.90684644226	0.0999814462848008	0.266727960202843
50846.25	100	273	2	9	2	1	0	2	2	0	1	22.5	157.5	3.0342297871343	-1.67008532882705	0.116666666666667	0	0	0	235.023537623696	235.123519801069	0.0999821773730218	0.116691181436181
50913	100	274	2	10	2	1	0	2	2	0	2	157.5	112.5	2.82666597461387	-1.07354149148103	0.166666666666667	0	0	0	235.29021340888	235.390137315728	0.0999239068478346	0.166693607810885
50983.75	100	275	2	11	2	1	0	2	2	0	1	22.5	157.5	-0.644784167393377	1.92680439306125	0.183333333333333	0	0	0	235.57352676196	235.673511377536	0.0999846155755222	0.183389446232468
51063	100	276	2	12	2	1	0	2	2	0	2	157.5	112.5	2.93536088364099	1.87319097474679	0.216666666666667	0	0	0	235.890200097114	235.990182274487	0.0999821773730218	0.216688719578087
51125.5	100	277	2	13	2	1	0	2	2	0	2	67.5	112.5	-2.49281069096487	-0.154268159040968	0.15	0	0	0	236.140234413091	236.240186845884	0.0999524327926338	0.150052138604224
51196.25	100	278	2	14	2	1	0	2	2	0	1	112.5	157.5	-0.00209328588771385	2.57480143167528	0.183333333333333	0	0	0	236.423550935928	236.523529700004	0.0999787640757859	0.183364090044051
51296.25	100	279	2	15	2	1	0	2	2	0	1	22.5	67.5	1.68056904041389	-2.10299787081199	0.3	0	0	0	236.823558640201	236.923543499783	0.0999848595820367	0.30002894019708
51363	100	280	2	16	2	1	0	2	2	0	1	22.5	157.5	-0.831645117074938	0.553353241879113	0.166666666666667	0	0	0	237.090257830918	237.190218065865	0.0999602349475026	0.166714331135154
51446.25	100	281	2	17	2	1	0	2	2	3	1	112.5	67.5	-2.04271041032095	2.35420078913478	0.233333333333333	0	0	0	237.423576779664	237.523555299733	0.0999785200692713	0.233358713798225
51496.25	100	282	2	18	2	1	0	2	2	3	1	22.5	157.5	2.28428651242578	1.52182131267248	0.1	0	0	0	237.623602330685	237.723591578659	0.0999892479740083	0.100047030951828
51571.25	100	283	2	19	2	1	0	2	2	3	2	67.5	112.5	0.168425873153424	1.33478885278615	0.2	0	0	0	237.923577632755	238.02358589787	0.100008265115321	0.199986054096371
51642	100	284	2	20	2	1	0	2	2	2	-1	135	0	-0.28928248597132	-2.3969452483943	0.183333333333333	0	0	0	238.206955839414	238.306940698996	0.0999848595820367	0.183369941543788
51696.25	100	285	2	21	2	1	0	2	2	3	1	112.5	157.5	-0.624633506492698	0.982786098921962	0.116666666666667	0	0	0	238.423606036697	238.523588945623	0.0999829089269042	0.116665337700397
51758.75	100	286	2	22	2	1	0	2	2	3	2	157.5	112.5	1.88022180880483	-1.37057434724805	0.15	0	0	0	238.673609145451	238.773586934432	0.0999777889810503	0.15002019982785
51846.25	100	287	2	23	2	1	0	2	2	3	2	67.5	22.5	-3.08820263813869	0.213767620470627	0.25	0	0	0	239.023642218206	239.12358904304	0.0999468248337507	0.25005528377369
51938	100	288	2	24	2	1	0	2	2	3	2	157.5	22.5	1.11531000780636	-0.148706759554262	0.266666666666667	0	0	0	239.390296767466	239.490279676393	0.0999829089269042	0.266707724425942
52000.5	100	289	2	25	2	1	0	2	2	0	1	112.5	67.5	-1.29119006480203	-1.65060970700399	0.15	0	0	0	239.640302070417	239.740282297134	0.0999802267178893	0.150022394023836
52054.75	100	290	2	26	2	1	0	2	2	0	1	112.5	157.5	-2.76466117941235	2.63936654534019	0.116666666666667	0	0	0	239.856969090644	239.956952243112	0.0999831524677575	0.116686793509871
52150.5	100	291	2	27	2	1	0	2	2	0	1	22.5	157.5	1.0097518385338	-1.3667852556845	0.283333333333333	0	0	0	240.240316065028	240.340300924145	0.0999848591163754	0.283363821916282
52225.5	100	292	2	28	2	1	0	2	2	0	1	112.5	67.5	2.75471968814968	1.17028908726709	0.2	0	0	0	240.540324281435	240.640305727255	0.0999814458191395	0.200023357290775
52296.25	100	293	2	29	2	1	0	2	2	0	1	22.5	67.5	-1.80684027950736	-0.501796322214587	0.183333333333333	0	0	0	240.823667866644	240.923646387178	0.0999785205349326	0.183362139388919
52354.75	100	294	2	30	2	1	0	2	2	0	2	157.5	112.5	-2.797529659138	-1.83320621621176	0.133333333333333	0	0	0	241.056998786516	241.156996324193	0.099997537676245	0.133352399338037
52454.75	100	295	2	31	2	1	0	2	2	0	2	157.5	22.5	-1.96581845826254	2.08304439493423	0.3	0	0	0	241.457012829836	241.557027190458	0.100014360621572	0.300016505643725
52550.5	100	296	2	32	2	1	0	2	2	0	2	157.5	22.5	0.855686522302516	-2.88710474311688	0.283333333333333	0	0	0	241.840386623517	241.940349052195	0.0999624286778271	0.283359433058649
52613	100	297	2	33	2	1	0	2	2	0	1	22.5	67.5	0.217658828932457	-0.48738575839922	0.15	0	0	0	242.090368520468	242.190350454301	0.0999819338321686	0.150019468273968
52713	100	298	2	34	2	1	0	2	2	0	1	22.5	157.5	1.62482971922889	2.82796575781698	0.3	0	0	0	242.490382563788	242.590388391167	0.100005827378482	0.300032109487802
52800.5	100	299	2	35	2	1	0	2	2	0	2	157.5	22.5	-0.793951316725118	1.37063254626561	0.25	0	0	0	242.840384429321	242.940372458193	0.0999880288727582	0.249996038153768
52883.75	100	300	2	36	2	1	0	2	2	0	2	67.5	22.5	1.58444568906909	-2.0060996733044	0.233333333333333	0	0	0	243.173757503275	243.273722614162	0.099965110886842	0.233385045081377
52979.75	100	301	2	37	2	1	0	2	2	0	2	67.5	112.5	-1.31330158698689	1.47742845712417	0.283333333333333	0	0	0	243.557072051335	243.657060080208	0.0999880288727582	0.283349437173456
53029.75	100	302	2	38	2	1	0	2	2	0	2	67.5	112.5	0.620827957810518	0.425169973005366	0.1	0	0	0	243.757078097668	243.857048572507	0.0999704748392105	0.100018017459661
53088	100	303	2	39	2	1	0	2	2	0	1	22.5	67.5	-0.155894357520059	1.46357613752014	0.133333333333333	0	0	0	243.990415112581	244.090397289954	0.0999821773730218	0.133366540074348
53150.5	100	304	2	40	2	1	0	2	2	0	2	157.5	22.5	-1.41351353596581	0.759040741417995	0.15	0	0	0	244.240429680329	244.340404787101	0.0999751067720354	0.15003239037469
53204.75	100	305	2	41	2	1	0	2	2	0	2	157.5	112.5	2.86839487411743	2.3683039367365	0.116666666666667	0	0	0	244.457096944097	244.557083266322	0.0999863222241402	0.116692156996578
53271.25	100	306	2	42	2	1	0	2	2	0	1	112.5	157.5	2.22171240912793	-2.62989437941193	0.166666666666667	0	0	0	244.723772973288	244.823782701045	0.100009727757424	0.166689706966281
53371.25	100	307	2	43	2	1	0	2	2	0	2	157.5	112.5	2.24924677253214	-1.35584751056436	0.3	0	0	0	245.123793355655	245.223794306628	0.100000950973481	0.30001065460965
53446.25	100	308	2	44	2	1	0	2	2	0	1	112.5	157.5	0.767524791362584	-0.93823365085606	0.2	0	0	0	245.423818395007	245.523801547475	0.0999831524677575	0.200024088378996
53546.25	100	309	2	45	2	1	0	2	2	0	1	112.5	157.5	-1.13682909962044	2.90753422840709	0.3	0	0	0	245.823825855274	245.923788771965	0.0999629166908562	0.300024307798594
53621.25	100	310	2	46	2	1	0	2	2	0	2	67.5	112.5	1.14117676870908	-0.698559229776398	0.2	0	0	0	246.123834803235	246.223822588567	0.0999877853319049	0.200046031270176
53713	100	311	2	47	2	1	0	2	2	0	2	157.5	112.5	-1.02552443811562	0.799984405762564	0.266666666666667	0	0	0	246.490515927784	246.590486402623	0.0999704748392105	0.266693339217454
53792.25	100	312	2	48	2	1	0	2	2	0	1	22.5	157.5	3.04257609082329	-0.578878170905636	0.216666666666667	0	0	0	246.807162931189	246.90714657167	0.0999836404807866	0.216676528565586
53875.5	100	313	2	49	2	1	0	2	2	0	2	157.5	112.5	-0.295430456507913	-0.63577019714729	0.233333333333333	0	0	0	247.140508211218	247.240484049544	0.0999758383259177	0.233361639548093
53963	100	314	2	50	2	1	0	2	2	0	1	22.5	157.5	-1.43397148311959	1.50984865488078	0.25	0	0	0	247.490498861298	247.590531019494	0.100032158195972	0.250014811754227
54013	100	315	2	51	2	1	0	2	2	0	1	22.5	157.5	2.41265135800091	0.109382016046689	0.1	0	0	0	247.690550012514	247.790527557489	0.0999775449745357	0.100018993020058
54063	100	316	2	52	2	1	0	2	2	0	2	67.5	22.5	1.16068268415294	2.58751535281416	0.1	0	0	0	247.890553377103	247.990532141179	0.0999787640757859	0.10002581961453
54133.75	100	317	2	53	2	1	0	2	2	0	1	112.5	67.5	-2.03522885168359	2.10999232256597	0.183333333333333	0	0	0	248.17389062373	248.273853052408	0.0999624286778271	0.18335848255083
54200.5	100	318	2	54	2	1	0	2	2	0	2	157.5	22.5	1.02327615846356	3.14042108871209	0.166666666666667	0	0	0	248.440573966596	248.540542003233	0.0999680366367102	0.166720914188772
54292.25	100	319	2	55	2	1	0	2	2	0	2	67.5	112.5	-0.654536592526394	-1.73742059033221	0.266666666666667	0	0	0	248.807217056863	248.907200209796	0.0999831529334188	0.266675053630024
54371.25	100	320	2	56	2	1	0	2	2	0	2	157.5	22.5	2.12202288795407	2.83829197890312	0.216666666666667	0	0	0	249.123893805314	249.223875007592	0.0999812022782862	0.216693595517427
54429.75	100	321	2	57	2	1	0	2	2	0	2	67.5	22.5	-1.40715787213024	3.08538609916494	0.133333333333333	0	0	0	249.357233989518	249.457211290952	0.0999773014336824	0.133358981925994
54529.75	100	322	2	58	2	1	0	2	2	0	1	112.5	67.5	0.2862859515277	0.768863641798568	0.3	0	0	0	249.7572385245	249.857224602718	0.0999860782176256	0.300027233548462
54600.5	100	323	2	59	2	1	0	2	2	0	2	157.5	112.5	2.33956900038775	-2.69283183238351	0.183333333333333	0	0	0	250.040583085269	250.140560630243	0.0999775449745357	0.18335848255083
54650.5	100	324	2	60	2	1	0	2	2	3	2	67.5	22.5	-3.02330690454342	2.97504189234107	0.1	0	0	0	250.24061546335	250.340577648487	0.0999621851369739	0.100054833106697
54733.75	100	325	2	61	2	1	0	2	2	3	1	112.5	67.5	-0.715923315089896	0.624255730309366	0.233333333333333	0	0	0	250.573958792724	250.673916589003	0.099957796279341	0.233381144236773
54829.75	100	326	2	62	2	1	0	2	2	3	2	157.5	22.5	1.86144361254553	0.30680884586235	0.283333333333333	0	0	0	250.957273340318	251.057252348401	0.0999790080823004	0.283356751315296
54888	100	327	2	63	2	1	0	2	2	1	-1	0	135	2.57179449054758	1.57166290308166	0.133333333333333	0	0	0	251.190612061881	251.290593264159	0.0999812022782862	0.133359713479877
54954.75	100	328	2	64	2	1	0	2	2	3	1	22.5	67.5	-3.00381747232552	-1.57773411768836	0.166666666666667	0	0	0	251.457286140416	251.55727246264	0.0999863222241402	0.166692876257002
55008.75	100	329	2	65	2	1	0	2	2	3	1	22.5	157.5	-0.214729497605721	-1.5938286265366	0.116666666666667	0	0	0	251.673964863643	251.773945334367	0.0999804707244039	0.116692401003093
55079.75	100	330	2	66	2	1	0	2	2	3	2	157.5	112.5	-0.586422039616726	-2.42237272800179	0.183333333333333	0	0	0	251.957303328905	252.057310618926	0.100007290020585	0.183357994537801
55171.25	100	331	2	67	2	1	0	2	2	3	1	112.5	157.5	-1.56255414397231	-0.481621784111017	0.266666666666667	0	0	0	252.324008591007	252.42399076838	0.0999821773730218	0.266697972081602
55221.25	100	332	2	68	2	1	0	2	2	0	1	22.5	67.5	-1.680529785657	1.96833758503036	0.1	0	0	0	252.524010004941	252.623996083159	0.0999860782176256	0.100019236560911
55300.5	100	333	2	69	2	1	0	2	2	0	2	67.5	22.5	-2.48636247258103	2.88656940302993	0.216666666666667	0	0	0	252.840659202542	252.940642355476	0.0999831529334188	0.216663119383156
55379.75	100	334	2	70	2	1	0	2	2	0	1	22.5	67.5	0.572415082314929	-1.39428837554631	0.216666666666667	0	0	0	253.157334000338	253.25731008267	0.0999760823324323	0.216691644862294
55450.5	100	335	2	71	2	1	0	2	2	0	2	157.5	22.5	-2.74525243939253	-2.57892806939043	0.183333333333333	0	0	0	253.44067344116	253.540652692784	0.0999792516231537	0.183363358490169
55525.5	100	336	2	72	2	1	0	2	2	0	2	157.5	112.5	1.73622102149259	0.97232470551848	0.2	0	0	0	253.740683364216	253.840666273143	0.0999829089269042	0.200030671432614
55617.25	100	337	2	73	2	1	0	2	2	0	2	67.5	22.5	-2.90768943881249	1.9594501765315	0.266666666666667	0	0	0	254.107354004867	254.207343252841	0.0999892479740083	0.266687731724232
55692.25	100	338	2	74	2	1	0	2	2	0	1	22.5	67.5	1.53245110705623	-0.70368464578269	0.2	0	0	0	254.407366122119	254.507351713255	0.0999855911359191	0.200022869277745
55750.5	100	339	2	75	2	1	0	2	2	0	1	112.5	157.5	1.49207259957729	-0.864055795601994	0.133333333333333	0	0	0	254.640705331229	254.740721398499	0.10001606727019	0.133353617973626
55825.5	100	340	2	76	2	1	0	2	2	0	2	157.5	22.5	2.80649230063182	-1.63094461759866	0.2	0	0	0	254.940718424041	255.04069791967	0.0999794956296682	0.199997025541961
55913	100	341	2	77	2	1	0	2	2	0	1	112.5	67.5	2.60058369390251	-2.73893804831481	0.25	0	0	0	255.290722483303	255.390715144575	0.0999926612712443	0.250024563632905
56004.75	100	342	2	78	2	1	0	2	2	0	1	22.5	157.5	1.55065779048276	-2.49573891155265	0.266666666666667	0	0	0	255.657430183142	255.757411629427	0.0999814462848008	0.266715038567781
56063	100	343	2	79	2	1	0	2	2	0	1	112.5	67.5	0.769058242828264	-0.947868650868915	0.133333333333333	0	0	0	255.89074135432	255.990721337497	0.099979983177036	0.133329724892974
56134	100	344	2	80	2	1	0	2	2	0	2	67.5	22.5	-1.52439837134688	-2.24905912564203	0.183333333333333	0	0	0	256.174080551136	256.274065898266	0.0999853471294045	0.183359213639051
56225.5	100	345	2	81	2	1	0	2	2	3	1	22.5	67.5	-1.64759568959428	2.93637565966928	0.266666666666667	0	0	0	256.540762894787	256.640770428348	0.100007533561438	0.266696996521205
56321.5	100	346	2	82	2	1	0	2	2	3	1	22.5	157.5	-0.432427940660289	-1.61492064438749	0.283333333333333	0	0	0	256.924103042576	257.024090827908	0.0999877853319049	0.283332614228129
56409	100	347	2	83	2	1	0	2	2	3	2	67.5	112.5	1.87069879429343	1.8632602485042	0.25	0	0	0	257.274111978244	257.37409366807	0.099981689825654	0.25002115033567
56475.5	100	348	2	84	2	1	0	2	2	2	-1	45	0	2.67154627983244	1.39311436530482	0.166666666666667	0	0	0	257.540801416617	257.640797491185	0.0999960745684803	0.166707748547196
56529.75	100	349	2	85	2	1	0	2	2	3	2	157.5	112.5	1.19979386295147	-2.01326227586925	0.116666666666667	0	0	0	257.757489648182	257.857445738278	0.0999560900963843	0.116692156996578
56613	100	350	2	86	2	1	0	2	2	3	2	157.5	22.5	0.462928917336682	2.69164031423477	0.233333333333333	0	0	0	258.090807134286	258.190785898361	0.0999787640757859	0.23336139600724
56688	100	351	2	87	2	1	0	2	2	3	2	67.5	22.5	-1.6128896922691	-1.3833183849073	0.2	0	0	0	258.390808036085	258.490797771607	0.0999897355213761	0.200022137723863
56750.5	100	352	2	88	2	1	0	2	2	3	1	112.5	67.5	-1.32453594767557	-1.26730056027902	0.15	0	0	0	258.64084381517	258.740824773908	0.099980958737433	0.150046043563634
56842.25	100	353	2	89	2	1	0	2	2	0	1	22.5	67.5	-1.98613985504881	1.37944807555674	0.266666666666667	0	0	0	259.007503240835	259.107504679356	0.100001438520849	0.26667846692726
56925.5	100	354	2	90	2	1	0	2	2	0	1	22.5	67.5	1.73252433211056	-2.07432013904518	0.233333333333333	0	0	0	259.340849983506	259.440818751696	0.0999687681905925	0.233345304150134
57009	100	355	2	91	2	1	0	2	2	0	2	67.5	112.5	0.703307567660758	-1.61060148315068	0.233333333333333	0	0	0	259.674175758846	259.774162325077	0.0999865662306547	0.233357007149607
57084	100	356	2	92	2	1	0	2	2	0	1	22.5	157.5	-1.20532957745354	-2.28951504915608	0.2	0	0	0	259.974183000159	260.074167859275	0.0999848591163754	0.20002067508176
57159	100	357	2	93	2	1	0	2	2	0	2	67.5	22.5	1.81946921422656	-2.36069728806605	0.2	0	0	0	260.274191216566	260.374175344594	0.0999841280281544	0.200023357290775
57250.5	100	358	2	94	2	1	0	2	2	0	2	157.5	22.5	-2.82774705934184	0.198584682064436	0.266666666666667	0	0	0	260.640898184851	260.740880118683	0.0999819338321686	0.266722840256989
57338	100	359	2	95	2	1	0	2	2	0	1	112.5	157.5	-2.81789780582478	1.855372417146	0.25	0	0	0	260.990883714519	261.090866623446	0.0999829089269042	0.250003595836461
57421.5	100	360	2	96	2	1	0	2	2	0	2	157.5	22.5	0.0948220257698522	-1.04187287924979	0.233333333333333	0	0	0	261.324209002312	261.424204589333	0.0999955870211124	0.233342378865927
57475.5	100	361	2	97	2	1	0	2	2	0	2	67.5	112.5	2.0089866200753	-1.53310768322615	0.116666666666667	0	0	0	261.54094404541	261.640914276242	0.099970230832696	0.116739456076175
57563	100	362	2	98	2	1	0	2	2	0	1	22.5	67.5	-2.40816921629028	0.593798268296836	0.25	0	0	0	261.890913971234	261.990888590924	0.0999746196903288	0.249999694991857
57659	100	363	2	99	2	1	0	2	2	0	2	157.5	112.5	-1.10750850355787	1.69417234955233	0.283333333333333	0	0	0	262.27424851153	262.374232639559	0.0999841280281544	0.283359920606017
57742.25	100	364	2	100	2	1	0	2	2	0	1	112.5	67.5	-2.70937144296105	2.01474850412012	0.233333333333333	0	0	0	262.60758794006	262.707570117898	0.0999821778386831	0.233355300500989
57842.25	100	365	2	101	2	1	0	2	2	0	2	67.5	112.5	-1.61815647259495	2.1579268304998	0.3	0	0	0	263.00760295894	263.107583917212	0.0999809582717717	0.300032841041684
57900.5	100	366	2	102	2	1	0	2	2	0	2	157.5	22.5	1.32036823311559	2.76132525051777	0.133333333333333	0	0	0	263.240967280231	263.340950677171	0.0999833969399333	0.133383363019675
57954.75	100	367	2	103	2	1	0	2	2	0	1	22.5	67.5	-1.54995518585907	0.997896545488544	0.116666666666667	0	0	0	263.457610407379	263.557595022954	0.0999846155755222	0.116659730207175
58046.5	100	368	2	104	2	1	0	2	2	3	2	67.5	112.5	2.99628536960678	-1.77195218060462	0.266666666666667	0	0	0	263.824317863211	263.924298090395	0.0999802271835506	0.266722840256989
58104.75	100	369	2	105	2	1	0	2	2	3	1	22.5	67.5	-0.95102727183152	0.0758437512469663	0.133333333333333	0	0	0	264.057653659023	264.157638518605	0.0999848595820367	0.133355568628758
58184	100	370	2	106	2	1	0	2	2	3	1	112.5	67.5	-0.325815440193296	-0.861752140937042	0.216666666666667	0	0	0	264.374307977036	264.474293080159	0.09998510312289	0.21666945843026
58246.5	100	371	2	107	2	1	0	2	2	1	-1	0	135	-2.2124647878987	-2.97856482475154	0.15	0	0	0	264.624309622683	264.72429253161	0.0999829089269042	0.150016542524099
58346.5	100	372	2	108	2	1	0	2	2	3	1	22.5	157.5	-2.77755223800646	-2.33480115539899	0.3	0	0	0	265.024347315542	265.124324860517	0.0999775449745357	0.300054783932865
58442.25	100	373	2	109	2	1	0	2	2	3	1	112.5	157.5	1.2946659603754	0.64297490805562	0.283333333333333	0	0	0	265.407663326245	265.507651842665	0.099988516420126	0.283338465727866
58492.25	100	374	2	110	2	1	0	2	2	3	2	157.5	112.5	-2.8317388764916	2.25546314241325	0.1	0	0	0	265.607701067813	265.707654719707	0.0999536518938839	0.100049225147814
58579.75	100	375	2	111	2	1	0	2	2	3	2	157.5	22.5	2.64023849795536	-3.09357007523468	0.25	0	0	0	265.957707809284	266.057729971595	0.100022162310779	0.250053089577705
58667.25	100	376	2	112	2	1	0	2	2	0	2	67.5	112.5	-0.316290407537114	-0.0603695100679387	0.25	0	0	0	266.307717232499	266.407685025129	0.0999677926301956	0.249987260904163
58754.75	100	377	2	113	2	1	0	2	2	0	2	67.5	22.5	-3.06564152957404	-2.62632987022405	0.25	0	0	0	266.657697886229	266.757700299844	0.100002413615584	0.250012861099094
58804.75	100	378	2	114	2	1	0	2	2	0	1	112.5	67.5	-1.62009521576251	0.198865548428184	0.1	0	0	0	266.857733921148	266.957688792143	0.0999548709951341	0.100033621303737
58884	100	379	2	115	2	1	0	2	2	0	2	67.5	112.5	2.58592533273181	2.76763390807767	0.216666666666667	0	0	0	267.174406768288	267.274365540128	0.0999587718397379	0.216717976145446
58954.75	100	380	2	116	2	1	0	2	2	0	2	67.5	112.5	0.280964932268196	1.594538775913	0.183333333333333	0	0	0	267.457725485321	267.557708881795	0.099983396474272	0.183359945192933
59034	100	381	2	117	2	1	0	2	2	0	1	112.5	67.5	-2.6195904508465	2.24390951944749	0.216666666666667	0	0	0	267.774404183961	267.874389775097	0.0999855911359191	0.216695302166045
59129.75	100	382	2	118	2	1	0	2	2	0	1	22.5	67.5	-0.150279716362756	0.470362952370441	0.283333333333333	0	0	0	268.157770907041	268.257753084879	0.0999821778386831	0.283381131943315
59196.5	100	383	2	119	2	1	0	2	2	0	1	112.5	67.5	2.44011077659413	-0.110280146636165	0.166666666666667	0	0	0	268.424409877043	268.524414484855	0.10000460781157	0.166656792163849
59246.5	100	384	2	120	2	1	0	2	2	0	2	157.5	112.5	-2.71237079932491	-2.82901963844688	0.1	0	0	0	268.624427870382	268.724403708708	0.0999758383259177	0.100013385526836
59296.5	100	385	2	121	2	1	0	2	2	0	2	157.5	22.5	-2.56337336292082	0.100761083936065	0.1	0	0	0	268.824424407911	268.924406341743	0.0999819338321686	0.100020699203014
59359	100	386	2	122	2	1	0	2	2	0	1	22.5	157.5	0.893305590707977	2.97905133574297	0.15	0	0	0	269.074434587266	269.17442871118	0.0999941239133477	0.150028245523572
59454.75	100	387	2	123	2	1	0	2	2	0	1	112.5	67.5	1.31693783601947	2.86243717333221	0.283333333333333	0	0	0	269.457801066339	269.557789582759	0.099988516420126	0.283372355159372
59538.25	100	388	2	124	2	1	0	2	2	0	1	112.5	157.5	0.268292840064605	-1.7496817950264	0.233333333333333	0	0	0	269.791121234186	269.891099266708	0.0999780325219035	0.233331651426852
59629.75	100	389	2	125	2	1	0	2	2	0	1	112.5	157.5	-0.105133996492065	-0.808033421788158	0.266666666666667	0	0	0	270.157806747127	270.257780878805	0.0999741316772997	0.266707480419427
59717.25	100	390	2	126	2	1	0	2	2	0	2	157.5	112.5	1.92092271910078	-1.61887582200586	0.25	0	0	0	270.507786425762	270.60778737627	0.10000095050782	0.250005546957254
59796.5	100	391	2	127	2	1	0	2	2	0	1	112.5	157.5	-1.83773975259921	-0.389764408769954	0.216666666666667	0	0	0	270.824503646232	270.924490943551	0.0999872973188758	0.21671626996249
59854.75	100	392	2	128	2	1	0	2	2	0	2	67.5	112.5	-2.01371673834847	2.57951151760019	0.133333333333333	0	0	0	271.057821644004	271.157802602276	0.0999809582717717	0.133330700453371
59921.5	100	393	2	129	2	1	0	2	2	0	1	22.5	67.5	-1.58526523965395	1.95323007443652	0.166666666666667	0	0	0	271.324494259432	271.424473023508	0.0999787640757859	0.166691657155752
59979.75	100	394	2	130	2	1	0	2	2	0	1	22.5	157.5	-0.958182257415085	-1.82331155047149	0.133333333333333	0	0	0	271.557832493447	271.65781857213	0.0999860786832869	0.133359469939023
60034	100	395	2	131	2	1	0	2	2	0	2	67.5	22.5	2.48837142824773	-0.448707549146052	0.116666666666667	0	0	0	271.774511460215	271.874484616797	0.0999731565825641	0.116692888084799
60117.25	100	396	2	132	2	1	0	2	2	0	1	22.5	157.5	-2.87616201617808	-2.2911265568824	0.233333333333333	0	0	0	272.107845281251	272.20783257857	0.0999872973188758	0.233360664453357
60171.5	100	397	2	133	2	1	0	2	2	0	2	157.5	22.5	0.936030411068979	1.26122765506418	0.116666666666667	0	0	0	272.324528880417	272.424498379696	0.0999694992788136	0.116696301847696
60234	100	398	2	134	2	1	0	2	2	0	2	157.5	112.5	0.346246775991523	2.54591862882241	0.15	0	0	0	272.574527600314	272.674510021694	0.0999824213795364	0.150029220618308
60284	100	399	2	135	2	1	0	2	2	0	1	112.5	157.5	0.982161378668047	-1.90834727554021	0.1	0	0	0	272.774561685044	272.874516312033	0.0999546269886196	0.100051663350314
60338.25	100	400	2	136	2	1	0	2	2	0	1	112.5	67.5	2.99678711406538	2.76853463983603	0.116666666666667	0	0	0	272.991208713036	273.091186014004	0.0999773009680212	0.116692401003093
60404.75	100	401	2	137	2	1	0	2	2	0	2	67.5	112.5	-0.496351251925687	-1.83847839502645	0.166666666666667	0	0	0	273.257875964511	273.35785814235	0.0999821778386831	0.166689950507134
60504.75	100	402	2	138	2	1	0	2	2	0	2	67.5	22.5	-0.876892426126274	-0.182502200081459	0.3	0	0	0	273.657876354642	273.757900955155	0.100024600513279	0.300018212292343
60571.5	100	403	2	139	2	1	0	2	2	0	2	67.5	22.5	-2.63962474581803	-0.114299668626203	0.166666666666667	0	0	0	273.924577496015	274.024577471893	0.0999999758787453	0.166676540859044
60659	100	404	2	140	2	1	0	2	2	3	1	22.5	67.5	-2.00256463558229	0.117035241172728	0.25	0	0	0	274.27459398983	274.374568853062	0.0999748632311821	0.250016517937183
60738.25	100	405	2	141	2	1	0	2	2	3	1	22.5	157.5	-0.713219072287371	2.81009080151407	0.216666666666667	0	0	0	274.591275858227	274.691240969114	0.099965110886842	0.216707005165517
60788.25	100	406	2	142	2	1	0	2	2	3	1	112.5	67.5	1.16385142529896	0.0633278347627817	0.1	0	0	0	274.791282879654	274.891265301034	0.0999824213795364	0.100041910540313
60871.5	100	407	2	143	2	1	0	2	2	3	2	67.5	22.5	-2.15911138104633	0.914492262599258	0.233333333333333	0	0	0	275.124599146657	275.224573278334	0.0999741316772997	0.233333845622838
62546.5	100	408	3	0	1	2	0	1	2	3	2	67.5	22.5	2.17501280752457	1.42647627216539	0.2	0	0	0	281.824779395014	281.924761816394	0.0999824213795364	-1
62621.5	100	409	3	1	1	2	0	1	2	3	2	67.5	112.5	-2.9086429112111	2.40671990460128	0.2	0	0	0	282.12481321115	282.224779541139	0.0999663299880922	0.200051394756883
62696.5	100	410	3	2	1	2	0	1	2	3	1	112.5	157.5	-1.76024773152856	2.95097907940469	0.2	0	0	0	282.42482094001	282.524805312045	0.0999843720346689	0.20004139887169
62771.5	100	411	3	3	1	2	0	1	2	3	1	112.5	67.5	-1.82802933283639	0.719164993388029	0.2	0	0	0	282.724829156417	282.824813040439	0.0999838840216398	0.200023844372481
62846.5	100	412	3	4	1	2	0	1	2	0	1	22.5	157.5	0.960243191977853	2.72528032870761	0.2	0	0	0	283.024818111677	283.124794194009	0.0999760823324323	0.200005071237683
62921.5	100	413	3	5	1	2	0	1	2	0	2	157.5	22.5	1.38207954916372	-2.25879148772262	0.2	0	0	0	283.324820720591	283.424800703768	0.099979983177036	0.200026526581496
62996.5	100	414	3	6	1	2	0	1	2	0	2	157.5	112.5	-1.47515227137168	-2.67278315649073	0.2	0	0	0	283.624857462943	283.724808676634	0.0999512136913836	0.200056759174913
63071.5	100	415	3	7	1	2	0	1	2	0	2	67.5	112.5	-2.66473935184043	0.984709133830981	0.2	0	0	0	283.924848612398	284.024832008872	0.099983396474272	0.200039935763925
63146.5	100	416	3	8	1	2	0	1	2	0	2	157.5	22.5	-0.797130733962152	-1.88279304465008	0.2	0	0	0	284.224868775345	284.324828034732	0.0999592593871057	0.200036766473204
63221.5	100	417	3	9	1	2	0	1	2	0	1	112.5	67.5	2.57494567463719	1.84596863916635	0.2	0	0	0	284.524849197362	284.624843321741	0.099994124379009	0.200021162629128
63296.5	100	418	3	10	1	2	0	1	2	0	2	67.5	22.5	-0.518919604001456	0.309733637677465	0.2	0	0	0	284.82488813391	284.9248569021	0.0999687681905925	0.200044812168926
63371.5	100	419	3	11	1	2	0	1	2	0	1	22.5	157.5	2.12102622251161	1.50342935675717	0.2	0	0	0	285.124878064729	285.224864386953	0.0999863222241402	0.200021162629128
63446.5	100	420	3	12	1	2	0	1	2	0	2	157.5	112.5	0.486859427309881	2.75784806025214	0.2	0	0	0	285.42487725988	285.524871628266	0.0999943683855236	0.200012872926891
63521.5	100	421	3	13	1	2	0	1	2	0	1	112.5	157.5	2.59273324677179	3.06538617754473	0.2	0	0	0	285.724879624788	285.824834252242	0.0999546274542809	0.20000799652189
63596.5	100	422	3	14	1	2	0	1	2	0	2	67.5	22.5	1.15828977665064	-0.586571458467194	0.2	0	0	0	286.024911490735	286.12487221323	0.0999607224948704	0.200077238492668
63671.5	100	423	3	15	1	2	0	1	2	0	2	67.5	112.5	-2.57239248698637	-1.39370284001277	0.2	0	0	0	286.324898983352	286.424872139934	0.0999731565825641	0.200026770122349
63746.5	100	424	3	16	1	2	0	1	2	0	1	22.5	67.5	1.43495376922619	2.73156037763298	0.2	0	0	0	286.624910369515	286.724889865145	0.0999794956296682	0.200038229580969
63821.5	100	425	3	17	1	2	0	1	2	0	1	112.5	67.5	-3.08706525057563	-1.29239697806248	0.2	0	0	0	286.924940772355	287.024903933052	0.0999631606973708	0.200050907209516
63896.5	100	426	3	18	1	2	0	1	2	0	1	22.5	157.5	-1.58575735786086	1.85751413255468	0.2	0	0	0	287.224930703174	287.324908979703	0.0999782765284181	0.200026770122349
63971.5	100	427	3	19	1	2	0	1	2	0	1	112.5	67.5	-1.55073796907583	-0.0588948105530047	0.2	0	0	0	287.524935749825	287.62491134461	0.0999755947850645	0.200026770122349
64046.5	100	428	3	20	1	2	0	1	2	0	1	22.5	67.5	-1.83800888755946	1.17618592221687	0.2	0	0	0	287.824945916887	287.924923705868	0.0999777889810503	0.200034572277218
64121.5	100	429	3	21	1	2	0	1	2	0	1	112.5	67.5	2.1536742160756	0.941974516298851	0.2	0	0	0	288.124985340983	288.224955571815	0.099970230832696	0.200061635114253
64196.5	100	430	3	22	1	2	0	1	2	0	2	67.5	112.5	-0.325649693933201	-0.106331902789944	0.2	0	0	0	288.424957717303	288.524936968926	0.0999792516231537	0.200002145487815
64271.5	100	431	3	23	1	2	0	1	2	0	2	67.5	22.5	2.7716830947664	0.468317280535899	0.2	0	0	0	288.724963251501	288.824951036833	0.0999877853319049	0.200026282574981
64346.5	100	432	3	24	1	2	0	1	2	0	2	157.5	22.5	1.9993531447831	1.30914562035871	0.2	0	0	0	289.024974393658	289.124984121881	0.100009728223085	0.200023356825113
64421.5	100	433	3	25	1	2	0	1	2	0	1	22.5	157.5	2.14797519955479	-1.79248587481774	0.2	0	0	0	289.324981390964	289.424960155506	0.0999787645414472	0.199997269082814
64496.5	100	434	3	26	1	2	0	1	2	0	1	112.5	157.5	1.42558408718996	-0.71499643305549	0.2	0	0	0	289.624989851378	289.724975198507	0.0999853471294045	0.200029695872217
64571.5	100	435	3	27	1	2	0	1	2	0	2	157.5	112.5	-2.56494742026461	0.295296202699101	0.2	0	0	0	289.92499416694	290.024987315759	0.0999931488186121	0.200018968433142
64646.5	100	436	3	28	1	2	0	1	2	0	2	67.5	22.5	1.95591200722088	2.03403074071498	0.2	0	0	0	290.225002626888	290.324991631322	0.0999890044331551	0.200015311129391
64721.5	100	437	3	29	1	2	0	1	2	0	2	157.5	22.5	-2.11873610994489	2.84965551347944	0.2	0	0	0	290.524997921661	290.625029836316	0.100031914655119	0.200006290338933
64796.5	100	438	3	30	1	2	0	1	2	0	2	67.5	112.5	-1.4185322857771	0.191549486129547	0.2	0	0	0	290.825050023384	290.925035370514	0.0999853471294045	0.200020187068731
64871.5	100	439	3	31	1	2	0	1	2	0	1	22.5	67.5	-1.52052035070531	0.660991591375486	0.2	0	0	0	291.125057264697	291.22503944207	0.0999821773730218	0.20002189418301
64946.5	100	440	3	32	1	2	0	1	2	0	1	112.5	157.5	-0.120210082093338	0.388711995027682	0.2	0	0	0	291.425062799361	291.525053266436	0.0999904670752585	0.200023357290775
65021.5	100	441	3	33	1	2	0	1	2	0	1	22.5	157.5	1.25691626133133	-0.790575392060189	0.2	0	0	0	291.725066383369	291.825060019735	0.0999936363659799	0.200013116933405
65096.5	100	442	3	34	1	2	0	1	2	0	2	157.5	22.5	0.311963257745609	-0.734252043615821	0.2	0	0	0	292.025076549966	292.12503337115	0.0999568211846054	0.200016530230641
65171.5	100	443	3	35	1	2	0	1	2	0	1	112.5	67.5	-2.52649203293777	1.5821724395903	0.2	0	0	0	292.325086473022	292.42504695151	0.0999604784883559	0.200053101871163
65246.5	100	444	3	36	1	2	0	1	2	0	2	67.5	112.5	-0.332087113404486	2.0580351769643	0.2	0	0	0	292.625071039889	292.725051998626	0.099980958737433	0.200024088378996
65321.5	100	445	3	37	1	2	0	1	2	0	1	112.5	157.5	0.877454156188914	-2.4471897020461	0.2	0	0	0	292.925104368944	293.025088984519	0.0999846155755222	0.20005237031728
65396.5	100	446	3	38	1	2	0	1	2	0	2	67.5	22.5	1.49281197245505	-2.20120287394413	0.2	0	0	0	293.225115754642	293.325081109069	0.0999653544276953	0.200026770122349
65471.5	100	447	3	39	1	2	0	1	2	0	2	67.5	112.5	1.69596382525241	-0.151777960550448	0.2	0	0	0	293.525099589955	293.625104441773	0.100004851818085	0.200018480885774
65546.5	100	448	3	40	1	2	0	1	2	0	1	22.5	157.5	-1.67264422196343	-1.77426171268245	0.2	0	0	0	293.825133894105	293.925086082891	0.0999521887861192	0.200029452331364
65621.5	100	449	3	41	1	2	0	1	2	3	2	67.5	112.5	1.41669304632559	0.637901518665653	0.2	0	0	0	294.125136503018	294.225118436385	0.0999819333665073	0.200050420127809
65696.5	100	450	3	42	1	2	0	1	2	3	2	157.5	22.5	-2.43413013778132	0.197400354664546	0.2	0	0	0	294.425118387677	294.525104953907	0.0999865662306547	0.199999951291829
65771.5	100	451	3	43	1	2	0	1	2	3	1	112.5	67.5	-0.944633948766366	-1.56100001599755	0.2	0	0	0	294.725151960272	294.825120240916	0.0999682806432247	0.200047006364912
65846.5	100	452	3	44	1	2	0	1	2	2	-1	135	0	2.25474188582149	-0.131845699467123	0.2	0	0	0	295.025137990247	295.125118704513	0.0999807142652571	0.200017749331892
65921.5	100	453	3	45	1	2	0	1	2	3	2	157.5	112.5	-1.77891879941539	-3.01524949437284	0.2	0	0	0	295.325151570141	295.425123020075	0.0999714499339461	0.2000328656286
65996.75	100	454	3	46	1	2	0	1	2	3	1	22.5	67.5	2.46515963872514	-0.657553786989914	0.2	0	0	0	295.625163199846	295.725163419265	0.100000219419599	0.20004017977044
66071.75	100	455	3	47	1	2	0	1	2	3	2	67.5	22.5	-2.94791743257254	1.38479571877608	0.2	0	0	0	295.925178486854	296.025172367226	0.0999938803724945	0.200015067588538
66146.75	100	456	3	48	1	2	0	1	2	3	1	112.5	157.5	2.75645969406654	-2.69051313885929	0.2	0	0	0	296.22517085541	296.325152057689	0.0999812022782862	0.199998488184065
66221.75	100	457	3	49	1	2	0	1	2	0	2	157.5	22.5	-0.00109555387008964	-2.63152245977605	0.2	0	0	0	296.525181022473	296.625159786548	0.0999787640757859	0.200028964783996
66296.75	100	458	3	50	1	2	0	1	2	0	2	67.5	112.5	2.76580132326087	1.37719393925037	0.2	0	0	0	296.825181680731	296.925153862219	0.0999721814878285	0.20002189418301
66371.75	100	459	3	51	1	2	0	1	2	0	2	157.5	22.5	-0.334149609615848	-0.727099282449087	0.2	0	0	0	297.125195017084	297.225190116558	0.0999950994737446	0.200041154865175
66446.75	100	460	3	52	1	2	0	1	2	0	2	67.5	22.5	-1.36633487765008	2.26102570260139	0.2	0	0	0	297.425201526843	297.525185410865	0.0999838840216398	0.200011410284787
66521.75	100	461	3	53	1	2	0	1	2	0	1	22.5	157.5	-2.54898994041951	-2.00734302975118	0.2	0	0	0	297.725212669	297.825196553022	0.0999838840216398	0.200027258135378
66596.75	100	462	3	54	1	2	0	1	2	0	2	67.5	22.5	0.431655475920129	1.09923908490203	0.2	0	0	0	298.025221860502	298.125196236186	0.0999743756838143	0.200025307480246
66671.75	100	463	3	55	1	2	0	1	2	0	1	112.5	157.5	0.958670761587828	-1.50099187258057	0.2	0	0	0	298.325227151159	298.425204452593	0.0999773014336824	0.200030914973468
66746.75	100	464	3	56	1	2	0	1	2	0	2	67.5	112.5	-1.37471125707921	-2.31237691708524	0.2	0	0	0	298.625239756424	298.7252185205	0.0999787640757859	0.2000353038311
66821.75	100	465	3	57	1	2	0	1	2	0	2	157.5	112.5	2.33585131921586	1.86851685875576	0.2	0	0	0	298.925253823865	299.025275742635	0.100021918769926	0.200035303365439
66896.75	100	466	3	58	1	2	0	1	2	0	2	67.5	22.5	-0.834557231434199	0.619684517365594	0.2	0	0	0	299.225235708989	299.325235928409	0.100000219419599	0.199959966354072
66971.75	100	467	3	59	1	2	0	1	2	0	1	112.5	157.5	-0.438322539328015	-1.68816325660451	0.2	0	0	0	299.525262210984	299.625241706613	0.0999794956296682	0.200026282574981
67046.75	100	468	3	60	1	2	0	1	2	0	2	67.5	112.5	-1.02198472531431	1.56338424616612	0.2	0	0	0	299.825290419627	299.925276254304	0.0999858346767724	0.20004871301353
67121.75	100	469	3	61	1	2	0	1	2	0	2	157.5	112.5	3.03476353056047	-1.62974095223236	0.2	0	0	0	300.125286689494	300.22526252782	0.0999758383259177	0.200010435190052
67196.75	100	470	3	62	1	2	0	1	2	0	1	112.5	67.5	-1.36683818014148	2.10844635441177	0.2	0	0	0	300.425283934455	300.525264649186	0.0999807147309184	0.200021406635642
67271.75	100	471	3	63	1	2	0	1	2	0	2	157.5	112.5	-0.190212937395684	-3.02698112764313	0.2	0	0	0	300.725290200207	300.825276522897	0.0999863226898015	0.200025551021099
67346.75	100	472	3	64	1	2	0	1	2	0	2	157.5	22.5	-0.738520538734676	1.36408285934177	0.2	0	0	0	301.025333525147	301.125305463094	0.0999719379469752	0.200057002250105
67421.75	100	473	3	65	1	2	0	1	2	0	2	67.5	112.5	-0.618652475718817	-1.79716364752814	0.2	0	0	0	301.325332233217	301.425285397563	0.0999531643465161	0.200026770122349
67496.75	100	474	3	66	1	2	0	1	2	0	1	22.5	67.5	1.27769811258255	-0.760920985943272	0.2	0	0	0	301.625310461037	301.725318970159	0.100008509121835	0.200025063473731
67571.75	100	475	3	67	1	2	0	1	2	0	1	22.5	157.5	2.48270633428325	1.04559852397835	0.2	0	0	0	301.925349885132	302.025311094709	0.0999612095765769	0.200030914973468
67646.75	100	476	3	68	1	2	0	1	2	0	2	67.5	112.5	-2.35334080495527	3.1105988794752	0.2	0	0	0	302.225313240197	302.325313216075	0.0999999758787453	0.200002145487815
67721.75	100	477	3	69	1	2	0	1	2	0	1	22.5	157.5	-1.27794077348753	-0.141913516426968	0.2	0	0	0	302.525351689197	302.625318019185	0.0999663299880922	0.200038473121822
67796.75	100	478	3	70	1	2	0	1	2	0	2	157.5	112.5	2.92898954901149	-0.829298929628711	0.2	0	0	0	302.825342107564	302.925328185782	0.0999860782176256	0.200024088378996
67871.75	100	479	3	71	1	2	0	1	2	3	2	157.5	112.5	-2.58939962082225	-1.0072889449001	0.2	0	0	0	303.125357150566	303.22533469554	0.0999775449745357	0.200028964783996
67946.75	100	480	3	72	1	2	0	1	2	3	2	67.5	22.5	0.113227211210568	2.14547557421483	0.2	0	0	0	303.425388772506	303.525347056799	0.0999582842923701	0.200054076965898
68021.75	100	481	3	73	1	2	0	1	2	3	1	112.5	67.5	-0.206789000367971	1.84370418415105	0.2	0	0	0	303.725369682536	303.825352347456	0.0999826649203897	0.200022625736892
68096.75	100	482	3	74	1	2	0	1	2	2	-1	45	0	0.510871175428463	0.800990723777385	0.2	0	0	0	304.02541105682	304.125392503105	0.0999814462848008	0.200058709364384
68171.75	100	483	3	75	1	2	0	1	2	3	2	67.5	112.5	-3.13436556962945	-0.259698702954088	0.2	0	0	0	304.325385871343	304.42537365621	0.0999877848662436	0.199993368238211
68246.75	100	484	3	76	1	2	0	1	2	3	1	22.5	67.5	1.64827160086129	2.95615364168511	0.2	0	0	0	304.625396525953	304.725378947333	0.0999824213795364	0.200022869743407
68321.75	100	485	3	77	1	2	0	1	2	3	2	157.5	22.5	0.517224441436113	1.93166886433228	0.2	0	0	0	304.925407180097	305.025388869923	0.099981689825654	0.200028232764453
68396.75	100	486	3	78	1	2	0	1	2	3	1	112.5	157.5	0.194683775551341	-0.781709162871017	0.2	0	0	0	305.225440021604	305.325394161046	0.0999541394412518	0.200051151681691
68471.75	100	487	3	79	1	2	0	1	2	0	1	22.5	67.5	1.86187185503896	-0.254270148384979	0.2	0	0	0	305.525424588472	305.625404571649	0.099979983177036	0.2000304274261
68546.75	100	488	3	80	1	2	0	1	2	0	2	157.5	22.5	-2.62463818082135	-2.44097996946329	0.2	0	0	0	305.825426465366	305.925412788056	0.0999863226898015	0.200021893717349
68621.75	100	489	3	81	1	2	0	1	2	0	1	22.5	157.5	1.52580788743045	-2.82782946837816	0.2	0	0	0	306.125463695265	306.22544709174	0.099983396474272	0.200050907209516
68696.75	100	490	3	82	1	2	0	1	2	0	1	22.5	67.5	-0.702880960088345	1.41941045213655	0.2	0	0	0	306.42544874968	306.525431658607	0.0999829089269042	0.200001657940447
68771.75	100	491	3	83	1	2	0	1	2	0	1	112.5	157.5	2.43971155216321	2.0266734578199	0.2	0	0	0	306.725457210094	306.825461330358	0.100004120264202	0.20002555148676
68846.75	100	492	3	84	1	2	0	1	2	0	1	112.5	157.5	2.91825385705011	-1.34070610548494	0.2	0	0	0	307.0254642074	307.125440777279	0.0999765698798001	0.200002877041698
68921.75	100	493	3	85	1	2	0	1	2	0	2	157.5	112.5	-0.403927914217834	1.67287706017626	0.2	0	0	0	307.325469985604	307.425453138538	0.0999831529334188	0.20002920832485
68996.75	100	494	3	86	1	2	0	1	2	0	1	112.5	67.5	3.01751010303178	-2.65522568404714	0.2	0	0	0	307.625473325606	307.725460135844	0.0999868102371693	0.200020187068731
69071.75	100	495	3	87	1	2	0	1	2	0	2	67.5	22.5	-1.09180442613245	-2.21115035020948	0.2	0	0	0	307.925485930871	308.025475422386	0.0999894915148616	0.200025795027614
69146.75	100	496	3	88	1	2	0	1	2	0	1	112.5	157.5	0.162534288875633	-2.99517540681568	0.2	0	0	0	308.22549560992	308.325476080645	0.0999804707244039	0.200020187534392
69221.75	100	497	3	89	1	2	0	1	2	0	1	22.5	157.5	-0.618648896658138	0.0948728379214518	0.2	0	0	0	308.525504313875	308.62548576016	0.0999814462848008	0.200028233230114
69296.75	100	498	3	90	1	2	0	1	2	0	1	22.5	67.5	-1.70394987041487	-2.47510612514808	0.2	0	0	0	308.82551106764	308.925494708121	0.0999836404807866	0.200025307480246
69371.75	100	499	3	91	1	2	0	1	2	0	1	22.5	67.5	2.64836574130229	-1.43619521626188	0.2	0	0	0	309.125519771595	309.225499510765	0.0999797391705215	0.200025063473731
69446.75	100	500	3	92	1	2	0	1	2	0	2	67.5	22.5	-0.201708030476513	3.07734602277557	0.2	0	0	0	309.425530182198	309.525512359571	0.0999821773730218	0.200030671432614
69521.75	100	501	3	93	1	2	0	1	2	0	1	112.5	157.5	1.0818268731287	-1.48779606865608	0.2	0	0	0	309.725562779699	309.825513505843	0.0999507261440158	0.200050420127809
69596.75	100	502	3	94	1	2	0	1	2	0	2	157.5	112.5	0.175948936831158	-1.53417158317634	0.2	0	0	0	310.025576359592	310.125536838081	0.0999604784883559	0.200062853749841
69671.75	100	503	3	95	1	2	0	1	2	0	2	67.5	22.5	1.88634435662207	1.12624701722594	0.2	0	0	0	310.325560195372	310.42554749269	0.0999872973188758	0.200023357290775
69746.75	100	504	3	96	1	2	0	1	2	0	1	112.5	67.5	2.31715992223978	0.879331416090305	0.2	0	0	0	310.625559390523	310.725543518551	0.0999841280281544	0.200011897832155
69821.75	100	505	3	97	1	2	0	1	2	0	2	67.5	22.5	0.91068722811678	2.17590301647131	0.2	0	0	0	310.925568826031	311.025552710053	0.0999838840216398	0.200025307480246
69896.75	100	506	3	98	1	2	0	1	2	0	1	112.5	67.5	0.764218298134037	0.946416588179344	0.2	0	0	0	311.225578749087	311.32555897627	0.0999802271835506	0.200026039034128
69971.75	100	507	3	99	1	2	0	1	2	0	2	67.5	112.5	-2.35003993282559	0.123327149420046	0.2	0	0	0	311.525594523642	311.625592548866	0.0999980252236128	0.200035547371954
70046.75	100	508	3	100	1	2	0	1	2	0	2	157.5	112.5	2.08856751481519	0.819671291875642	0.2	0	0	0	311.825587379746	311.925573214423	0.0999858346767724	0.199994830880314
70121.75	100	509	3	101	1	2	0	1	2	3	2	157.5	112.5	-1.76416528088987	-1.12075614227036	0.2	0	0	0	312.125599497464	312.225580211729	0.0999807142652571	0.200026283040643
70196.75	100	510	3	102	1	2	0	1	2	3	2	67.5	22.5	-2.73199724790643	-1.31585358838992	0.2	0	0	0	312.425641115755	312.525594279636	0.0999531638808548	0.200060904026031
70271.75	100	511	3	103	1	2	0	1	2	3	1	22.5	157.5	-0.732888886641725	-0.884461014402035	0.2	0	0	0	312.72564396821	312.825627364684	0.099983396474272	0.200049688573927
70346.75	100	512	3	104	1	2	0	1	2	1	-1	0	45	2.29037293299715	-2.5601066685207	0.2	0	0	0	313.025649990421	313.125635825098	0.0999858346767724	0.200022625736892
70421.75	100	513	3	105	1	2	0	1	2	3	1	112.5	157.5	1.27713583001511	2.30514849066114	0.2	0	0	0	313.325653330423	313.425638921093	0.0999855906702578	0.200017505325377
70496.75	100	514	3	106	1	2	0	1	2	3	1	22.5	67.5	0.253950579815966	2.55872314544109	0.2	0	0	0	313.625661790837	313.725648600608	0.099986809771508	0.200022869743407
70571.75	100	515	3	107	1	2	0	1	2	3	2	67.5	112.5	2.83370210073824	-1.38216656318583	0.2	0	0	0	313.925663180184	314.025659498759	0.0999963185749948	0.200014579575509
70646.75	100	516	3	108	1	2	0	1	2	3	2	157.5	22.5	-1.54414084189632	2.86788213539603	0.2	0	0	0	314.22568309959	314.325649917126	0.09996681753546	0.200023600831628
70721.75	100	517	3	109	1	2	0	1	2	0	1	112.5	67.5	2.71324417382464	-2.29933752184648	0.2	0	0	0	314.525694241747	314.625681783073	0.0999875413253903	0.200044324621558
70796.75	100	518	3	110	1	2	0	1	2	0	2	67.5	22.5	2.73987987807695	-1.70177216970021	0.2	0	0	0	314.825699775945	314.925682441331	0.0999826653860509	0.200017992872745
70871.75	100	519	3	111	1	2	0	1	2	0	1	112.5	67.5	0.199411626544357	1.9690827253663	0.2	0	0	0	315.12567873532	315.225686269347	0.1000075340271	0.199996293988079
70946.75	100	520	3	112	1	2	0	1	2	0	1	112.5	67.5	1.10193136024372	1.7107687373976	0.2	0	0	0	315.425719378516	315.525698386598	0.0999790080823004	0.200033109169453
71021.75	100	521	3	113	1	2	0	1	2	0	1	22.5	157.5	0.0878801688893525	-1.26207755337292	0.2	0	0	0	315.725695899688	315.825682221912	0.0999863222241402	0.199997513089329
71096.75	100	522	3	114	1	2	0	1	2	0	2	157.5	22.5	0.0362834761391837	-1.24632446320121	0.2	0	0	0	316.025715818629	316.125737493392	0.100021674763411	0.200033596716821
71171.75	100	523	3	115	1	2	0	1	2	0	2	157.5	22.5	2.47788675357813	-1.80248920152243	0.2	0	0	0	316.325713795144	316.425730837509	0.100017042364925	0.199976301752031
71246.75	100	524	3	116	1	2	0	1	2	0	1	22.5	67.5	0.543997736226153	2.39334613569199	0.2	0	0	0	316.625749318395	316.725736128166	0.099986809771508	0.200018480885774
71321.75	100	525	3	117	1	2	0	1	2	0	1	22.5	157.5	-0.760082076182488	2.3940005418007	0.2	0	0	0	316.925733885262	317.025714599993	0.0999807147309184	0.199997757095844
71396.75	100	526	3	118	1	2	0	1	2	0	1	22.5	67.5	1.49208674805341	-0.55131484182023	0.2	0	0	0	317.225741126109	317.3257228164	0.0999816902913153	0.200026526115835
71471.75	100	527	3	119	1	2	0	1	2	0	1	112.5	157.5	0.645515721512326	-1.46323137939527	0.2	0	0	0	317.525748123415	317.625731520355	0.0999833969399333	0.200025307014585
71546.75	100	528	3	120	1	2	0	1	2	0	2	157.5	22.5	-1.03425701282294	1.59271184319751	0.2	0	0	0	317.825762678869	317.925739248749	0.0999765698798001	0.200031158514321
71621.75	100	529	3	121	1	2	0	1	2	0	1	22.5	67.5	-0.975465403380329	0.670276090265753	0.2	0	0	0	318.125761874486	318.225744295865	0.0999824213795364	0.200022625736892
71696.75	100	530	3	122	1	2	0	1	2	0	2	157.5	112.5	1.5382519951923	0.359925984412627	0.2	0	0	0	318.425773748197	318.52575299982	0.0999792516231537	0.200029452331364
71771.75	100	531	3	123	1	2	0	1	2	0	2	157.5	112.5	1.81302292321502	2.11362335605758	0.2	0	0	0	318.725812196732	318.825762678869	0.0999504821375012	0.200059196911752
71846.75	100	532	3	124	1	2	0	1	2	0	2	67.5	112.5	1.63143541852662	-2.92895725071095	0.2	0	0	0	319.025787986349	319.12577162683	0.0999836404807866	0.200025307480246
71921.75	100	533	3	125	1	2	0	1	2	0	1	22.5	67.5	2.06995663848267	-0.323075764613215	0.2	0	0	0	319.325803273357	319.425792521331	0.0999892479740083	0.20003164652735
71996.75	100	534	3	126	1	2	0	1	2	0	2	157.5	112.5	1.60657363734416	-2.12065971706295	0.2	0	0	0	319.62580368761	319.725785133895	0.0999814462848008	0.200011166278273
72071.75	100	535	3	127	1	2	0	1	2	0	1	22.5	67.5	0.00112458405399929	2.80860517679366	0.2	0	0	0	319.925813610666	320.025820657145	0.100007046479732	0.200028476770967
72146.75	100	536	3	128	1	2	0	1	2	0	1	112.5	157.5	-0.487871398830328	0.839208262402424	0.2	0	0	0	320.22582621593	320.325802298263	0.0999760823324323	0.200005558785051
72221.75	100	537	3	129	1	2	0	1	2	0	1	112.5	157.5	1.66697146535606	0.412859353021795	0.2	0	0	0	320.525829555932	320.625805150717	0.0999755947850645	0.200027257669717
72296.75	100	538	3	130	1	2	0	1	2	0	2	157.5	22.5	-1.125665253855	-0.160728987061588	0.2	0	0	0	320.825848500244	320.925847744104	0.0999992438592017	0.200043349526823
72371.75	100	539	3	131	1	2	0	1	2	0	1	112.5	67.5	0.987670657889391	2.9229420533893	0.2	0	0	0	321.125841600355	321.22584888991	0.100007289554924	0.19999385625124
72446.75	100	540	3	132	1	2	0	1	2	3	2	157.5	22.5	-0.543711071405185	-0.325736256924746	0.2	0	0	0	321.425876879599	321.525829799939	0.0999529203400016	0.200027989689261
72521.75	100	541	3	133	1	2	0	1	2	3	2	157.5	112.5	2.23301173541981	-0.13635179950628	0.2	0	0	0	321.725888021756	321.825840454549	0.0999524327926338	0.200058221817017
72596.75	100	542	3	134	1	2	0	1	2	3	1	22.5	157.5	-2.1378285617316	2.42260447966303	0.2	0	0	0	322.02587210061	322.125863786787	0.0999916861765087	0.200031646061689
72671.75	100	543	3	135	1	2	0	1	2	3	1	22.5	67.5	2.03277724325621	0.440832277584502	0.2	0	0	0	322.325874465983	322.425856886897	0.0999824209138751	0.200010679196566
74138.5	100	544	4	0	1	2	90	2	1	3	2	67.5	112.5	-1.40188161698919	0.439247111155469	0.2	0	0	0	328.192729304545	328.292693927884	0.0999646233394742	-1
74213.5	100	545	4	1	1	2	90	2	1	3	1	112.5	157.5	2.49151452335391	1.94916165260264	0.2	0	0	0	328.492756294552	328.592703606933	0.0999473123811185	0.200062366668135
74288.5	100	546	4	2	1	2	90	2	1	3	1	22.5	157.5	-0.419428354699865	-2.4103410632297	0.2	0	0	0	328.792721356265	328.89270280255	0.0999814462848008	0.200017749331892
74363.5	100	547	4	3	1	2	90	2	1	3	2	157.5	22.5	-0.354197667592946	1.52816793446766	0.2	0	0	0	329.092726647388	329.192712238058	0.0999855906702578	0.200023844838142
74438.5	100	548	4	4	1	2	90	2	1	0	1	22.5	157.5	0.500660714223412	1.62326320485297	0.2	0	0	0	329.392751198728	329.492724111769	0.0999729130417109	0.20003896066919
74513.5	100	549	4	5	1	2	90	2	1	0	1	22.5	67.5	-1.2967893070681	1.66640547654233	0.2	0	0	0	329.692754051182	329.792740129866	0.0999860786832869	0.200029939413071
74588.5	100	550	4	6	1	2	90	2	1	0	1	112.5	67.5	2.0243656626113	0.822275419383001	0.2	0	0	0	329.992780797184	330.09276346257	0.0999826653860509	0.200040667317808
74663.5	100	551	4	7	1	2	90	2	1	0	2	67.5	22.5	0.834538039044763	1.09015612481656	0.2	0	0	0	330.292786819395	330.392749492079	0.0999626726843417	0.200023356825113
74738.5	100	552	4	8	1	2	90	2	1	0	2	67.5	22.5	2.90420986242534	0.575296361325528	0.2	0	0	0	330.592756026424	330.692755270284	0.0999992438592017	0.200006534345448
74813.5	100	553	4	9	1	2	90	2	1	0	1	22.5	67.5	-0.201205977934489	-0.501914267941654	0.2	0	0	0	330.892770093866	330.992776408792	0.100006314925849	0.200014823582023
74888.5	100	554	4	10	1	2	90	2	1	0	1	112.5	157.5	-2.25300430881302	-2.28855582110814	0.2	0	0	0	331.19278172357	331.292769021355	0.0999872977845371	0.200005314778537
74963.5	100	555	4	11	1	2	90	2	1	0	1	112.5	157.5	-2.46965385391381	2.89567418737046	0.2	0	0	0	331.492807006929	331.592800399754	0.0999933928251266	0.200037985574454
75038.5	100	556	4	12	1	2	90	2	1	0	1	112.5	67.5	-1.18389236817832	-0.207307155789207	0.2	0	0	0	331.792825950775	331.892790330108	0.0999643793329597	0.200025551021099
75113.5	100	557	4	13	1	2	90	2	1	0	1	22.5	157.5	0.735525070723462	-2.17997734579743	0.2	0	0	0	332.092811492737	332.192791963927	0.0999804711900651	0.200021162629128
75188.5	100	558	4	14	1	2	90	2	1	0	2	157.5	22.5	-1.38080860502584	3.01831206870228	0.2	0	0	0	332.392822391354	332.492797254585	0.0999748632311821	0.2000304274261
75263.5	100	559	4	15	1	2	90	2	1	0	2	157.5	112.5	-0.632134662318078	-2.33579514788431	0.2	0	0	0	332.692824999802	332.792806689627	0.099981689825654	0.200027745217085
75338.5	100	560	4	16	1	2	90	2	1	0	2	67.5	112.5	-2.8678347951531	-2.83323477522761	0.2	0	0	0	332.992830046918	333.092814906035	0.0999848591163754	0.200023357290775
75413.5	100	561	4	17	1	2	90	2	1	0	1	112.5	67.5	2.27078619959417	2.66517415715531	0.2	0	0	0	333.29286873946	333.39285140438	0.0999826649203897	0.200053833425045
75488.5	100	562	4	18	1	2	90	2	1	0	1	22.5	157.5	2.89457658632898	-1.8861169112265	0.2	0	0	0	333.592858426273	333.692833777051	0.0999753507785499	0.200007021892816
75563.5	100	563	4	19	1	2	90	2	1	0	1	112.5	157.5	-1.56392673281544	0.191361601536496	0.2	0	0	0	333.892866155133	333.992837117519	0.0999709623865783	0.200032378081232
75638.5	100	564	4	20	1	2	90	2	1	0	2	157.5	112.5	-1.57489592655145	2.44011348374556	0.2	0	0	0	334.192889731377	334.292873615399	0.0999838840216398	0.200052613858134
75713.5	100	565	4	21	1	2	90	2	1	3	2	67.5	22.5	-0.177800222849741	1.55204500625931	0.2	0	0	0	334.492905261926	334.592883538455	0.0999782765284181	0.20003164652735
75788.5	100	566	4	22	1	2	90	2	1	3	2	67.5	112.5	1.12961873553859	-2.19779967624855	0.2	0	0	0	334.792907139286	334.892893461511	0.0999863222241402	0.200023600831628
75863.5	100	567	4	23	1	2	90	2	1	3	2	157.5	22.5	0.999772586215708	3.08535431447038	0.2	0	0	0	335.092898045201	335.19287047023	0.0999724250286818	0.200004583690315
75938.5	100	568	4	24	1	2	90	2	1	1	-1	90	135	-1.00421182439582	-1.24570723175163	0.2	0	0	0	335.392906749155	335.492906237487	0.0999994883313775	0.200036278925836
76013.5	100	569	4	25	1	2	90	2	1	3	1	112.5	157.5	1.06390964424433	-0.138686612583981	0.2	0	0	0	335.692906188779	335.792883977294	0.099977788515389	0.199999951291829
76088.5	100	570	4	26	1	2	90	2	1	3	1	22.5	67.5	2.35150334803327	-1.89754713180126	0.2	1	0.492142869159579	1	335.992910991423	336.09289780166	0.0999868102371693	0.200027014128864
76163.5	100	571	4	27	1	2	90	2	1	3	1	22.5	157.5	0.79678153061028	1.32655179026455	0.2	0	0	0	336.292922377586	336.392904311419	0.0999819338321686	0.200024575926363
76238.5	100	572	4	28	1	2	90	2	1	3	2	157.5	112.5	-1.1360851275996	2.04051403249662	0.2	0	0	0	336.592928887345	336.692911308724	0.0999824213795364	0.200024575926363
76313.5	100	573	4	29	1	2	90	2	1	0	2	67.5	112.5	-2.45159890420738	0.706345951927738	0.2	0	0	0	336.892938566394	336.99292123178	0.0999826653860509	0.200027257669717
76388.5	100	574	4	30	1	2	90	2	1	0	1	22.5	67.5	1.19243164362328	1.43206051480481	0.2	0	0	0	337.192975308746	337.292925546877	0.0999502381309867	0.200054076965898
76463.5	100	575	4	31	1	2	90	2	1	0	2	67.5	22.5	0.854444328763011	2.76104998567276	0.2	0	0	0	337.492981574498	337.592949611135	0.0999680366367102	0.200056027621031
76538.5	100	576	4	32	1	2	90	2	1	0	2	157.5	22.5	0.934801908539467	-2.01280016572927	0.2	0	0	0	337.792968823109	337.892946856096	0.0999780329875648	0.200019211973995
76613.5	100	577	4	33	1	2	90	2	1	0	2	67.5	112.5	2.50364367769565	-0.274964672104892	0.2	0	0	0	338.09299849486	338.192956047598	0.0999575527384877	0.200051638763398
76688.5	100	578	4	34	1	2	90	2	1	0	2	157.5	112.5	2.7475502636722	2.79674654141212	0.2	0	0	0	338.393009880558	338.49298888864	0.0999790080823004	0.200053832959384
76763.5	100	579	4	35	1	2	90	2	1	0	2	67.5	112.5	2.68213837784637	-0.233958070676993	0.2	0	0	0	338.693012733478	338.792998568155	0.0999858346767724	0.200023844838142
76838.5	100	580	4	36	1	2	90	2	1	0	2	157.5	22.5	-1.98449428038293	-1.50676842930945	0.2	0	0	0	338.993002176285	339.092981184367	0.0999790080823004	0.200003608129919
76913.5	100	581	4	37	1	2	90	2	1	0	1	112.5	67.5	1.38971347699148	0.453165206594952	0.2	0	0	0	339.293027459644	339.392994277179	0.09996681753546	0.200046275276691
76988.5	100	582	4	38	1	2	90	2	1	0	1	22.5	157.5	-2.32618501319216	-1.45449138204176	0.2	0	0	0	339.593040308449	339.692994691432	0.099954382982105	0.200046031270176
77063.5	100	583	4	39	1	2	90	2	1	0	2	67.5	22.5	-1.70641729878651	-0.736857550775353	0.2	0	0	0	339.893019998912	339.993001445197	0.0999814462848008	0.200025307480246
77138.5	100	584	4	40	1	2	90	2	1	0	2	67.5	112.5	-1.93988384352271	-1.12529546546108	0.2	0	0	0	340.193027971312	340.293010880239	0.0999829089269042	0.200026526115835
77213.5	100	585	4	41	1	2	90	2	1	0	2	157.5	112.5	3.06520021937515	-1.73198592803159	0.2	0	0	0	340.493035212625	340.593019584194	0.0999843715690076	0.20002433238551
77288.5	100	586	4	42	1	2	90	2	1	0	1	112.5	67.5	-1.19031644756792	-0.902912516483848	0.2	0	0	0	340.793055619579	340.893031213898	0.0999755943194032	0.200036035384983
77363.5	100	587	4	43	1	2	90	2	1	0	2	67.5	112.5	-2.03221845596621	-1.45920300652399	0.2	0	0	0	341.093050913885	341.193034554366	0.0999836404807866	0.200019699987024
77438.5	100	588	4	44	1	2	90	2	1	0	2	157.5	112.5	-1.87469533432646	0.11756051977487	0.2	0	0	0	341.393065956887	341.493040332571	0.0999743756838143	0.200031402520835
77513.5	100	589	4	45	1	2	90	2	1	0	1	22.5	67.5	-2.48816051417354	2.85042592670177	0.2	0	0	0	341.693095384631	341.793072442524	0.0999770578928292	0.200055052060634
77588.5	100	590	4	46	1	2	90	2	1	0	2	157.5	22.5	1.03098141256251	-0.436835194513015	0.2	0	0	0	341.99308409635	342.093094799668	0.100010703317821	0.200011653825641
77663.5	100	591	4	47	1	2	90	2	1	0	2	157.5	22.5	-1.53638762676572	1.90572773706785	0.2	0	0	0	342.293098895811	342.393070345744	0.0999714499339461	0.200004096142948
77738.5	100	592	4	48	1	2	90	2	1	0	1	112.5	67.5	2.35983469414224	-2.67713350194945	0.2	0	0	0	342.59307590453	342.693102455232	0.100026550702751	0.200005558785051
77813.5	100	593	4	49	1	2	90	2	1	0	1	22.5	157.5	1.93566587288274	-0.265941739491597	0.2	0	0	0	342.893112646416	342.993080439512	0.0999677930958569	0.200010191183537
77888.5	100	594	4	50	1	2	90	2	1	0	1	22.5	67.5	-2.96631818426216	0.134411078535733	0.2	0	0	0	343.193104771432	343.293086461257	0.099981689825654	0.200024331919849
77963.5	100	595	4	51	1	2	90	2	1	0	2	157.5	112.5	2.56109577758185	0.157592826349324	0.2	0	0	0	343.493116401136	343.593127592001	0.100011190865189	0.200029939878732
78038.5	100	596	4	52	1	2	90	2	1	0	2	67.5	22.5	0.159556232423601	-1.04184056414967	0.2	0	0	0	343.793128762394	343.89310752647	0.0999787640757859	0.20000117039308
78113.5	100	597	4	53	1	2	90	2	1	0	1	22.5	157.5	1.71102316098297	-2.56640001253875	0.2	0	0	0	344.093139660545	344.193116717972	0.0999770574271679	0.200032134074718
78188.5	100	598	4	54	1	2	90	2	1	0	1	112.5	67.5	2.82945456823059	-2.22091120138117	0.2	0	0	0	344.393136417959	344.493124203291	0.0999877853319049	0.200019699987024
78263.5	100	599	4	55	1	2	90	2	1	0	1	22.5	157.5	1.52187446439536	0.591860250411077	0.2	0	0	0	344.693174622953	344.793136320543	0.099961697589606	0.200050419662148
78338.5	100	600	4	56	1	2	90	2	1	0	1	112.5	67.5	-1.15749769551227	-2.12857833320807	0.2	0	0	0	344.993158214726	345.093140148092	0.0999819333665073	0.20002189418301
78413.5	100	601	4	57	1	2	90	2	1	0	2	67.5	22.5	2.41097091156363	1.92116491503072	0.2	0	0	0	345.293197394814	345.393164699897	0.0999673050828278	0.200057246722281
78488.5	100	602	4	58	1	2	90	2	1	0	1	22.5	157.5	-3.05457087242249	2.77790563320765	0.2	0	0	0	345.593175622635	345.693157800008	0.0999821773730218	0.20001092273742
78563.5	100	603	4	59	1	2	90	2	1	0	2	157.5	22.5	1.60989001446168	-0.394023125421122	0.2	0	0	0	345.893183351494	345.993163334671	0.099979983177036	0.20002555148676
78638.5	100	604	4	60	1	2	90	2	1	0	2	157.5	22.5	-2.48001620603364	-2.66558211440914	0.2	0	0	0	346.193194249645	346.293172526173	0.0999782765284181	0.200030914973468
78713.5	100	605	4	61	1	2	90	2	1	0	1	22.5	67.5	-3.08424694412825	-2.03518170344901	0.2	0	0	0	346.493201734498	346.593181717675	0.099979983177036	0.20002920832485
78788.5	100	606	4	62	1	2	90	2	1	0	1	22.5	67.5	-0.5544009752954	2.54709994757296	0.2	0	0	0	346.793204830959	346.893187983893	0.0999831529334188	0.20002311328426
78863.5	100	607	4	63	1	2	90	2	1	0	1	112.5	157.5	-0.495040538238903	-0.585605133655914	0.2	0	0	0	347.093220117968	347.193194737192	0.0999746192246675	0.200032134074718
