onset	duration	total_event_number	stream_number	event_num_per_stream	timing_predictability	target_col	target_ori	n_targets	n_distractors	is_target	ori_pair_num	att_ori	unatt_ori	gabor_phase_att	gabor_phase_unatt	blank_dur	response	rt	correct	time_stimon	time_stimoff	stim_dur	ISI_dur
23791.75	100	0	0	0	2	1	90	2	2	3	2	67.5	112.5	1.7731341444488	0.476874559495723	0.2	0	0	0	109.828865400283	109.928850747179	0.0999853468965739	-1
23850	100	1	0	1	2	1	90	2	2	3	1	22.5	157.5	-2.51468083051414	0.883392201907816	0.133333333333333	0	0	0	110.062226552283	110.162169720279	0.0999431679956615	0.133375805104151
23945.75	100	2	0	2	2	1	90	2	2	3	1	112.5	67.5	-1.7429343589267	-3.07219635873821	0.283333333333333	0	0	0	110.445540368557	110.545522789937	0.0999824213795364	0.283370648277923
24012.5	100	3	0	3	2	1	90	2	2	3	2	157.5	112.5	-1.29962557511408	1.96383345789052	0.166666666666667	0	0	0	110.712214690866	110.812195405597	0.0999807147309184	0.166691900929436
24091.75	100	4	0	4	2	1	90	2	2	0	1	22.5	67.5	-2.0314547020346	-1.07398774059317	0.216666666666667	0	0	0	111.028901678976	111.128865326988	0.0999636480119079	0.216706273378804
24145.75	100	5	0	5	2	1	90	2	2	0	2	157.5	22.5	1.56706217334165	2.22832665352484	0.116666666666667	0	0	0	111.24556845543	111.345549413934	0.0999809585046023	0.116703128442168
24212.5	100	6	0	6	2	1	90	2	2	0	1	22.5	67.5	-2.45666307190233	-0.537202373520058	0.166666666666667	0	0	0	111.51224399684	111.612207400845	0.0999634040053934	0.16669458290562
24287.5	100	7	0	7	2	1	90	2	2	0	2	157.5	112.5	-2.82192070763642	2.58416388633507	0.2	0	0	0	111.812221493106	111.912217323901	0.0999958307947963	0.200014092260972
24375	100	8	0	8	2	1	90	2	2	0	2	67.5	112.5	0.350936201321054	-3.13872894489318	0.25	0	0	0	112.162257247837	112.262245520484	0.0999882726464421	0.250039923936129
24462.5	100	9	0	9	2	1	90	2	2	0	1	22.5	157.5	1.48390597639783	3.01842799733985	0.25	0	0	0	112.512250579661	112.612250311533	0.0999997318722308	0.250005059177056
24541.75	100	10	0	10	2	1	90	2	2	0	2	157.5	112.5	2.04252285970227	-2.53939595456392	0.216666666666667	0	0	0	112.828945613466	112.928924134001	0.0999785205349326	0.216695301933214
24608.25	100	11	0	11	2	1	90	2	2	0	1	112.5	157.5	0.373711090358943	0.0689743732841155	0.166666666666667	0	0	0	113.095613596728	113.195596018108	0.0999824213795364	0.166689462726936
24670.75	100	12	0	12	2	1	90	2	2	0	2	67.5	22.5	-1.08848767064661	-0.116016616877322	0.15	0	0	0	113.34562304453	113.445606441004	0.099983396474272	0.150027026422322
24737.5	100	13	0	13	2	1	90	2	2	0	2	67.5	22.5	2.39955478482853	3.05558864796099	0.166666666666667	0	0	0	113.612283469643	113.712278568884	0.099995099240914	0.166677028639242
24795.75	100	14	0	14	2	1	90	2	2	0	1	22.5	157.5	1.48376096365863	1.36247186843718	0.133333333333333	0	0	0	113.845636088168	113.946058098227	0.100422010058537	0.133357519283891
24887.5	100	15	0	15	2	1	90	2	2	0	1	22.5	67.5	-0.132640085283591	3.02790722619146	0.266666666666667	0	0	0	114.212297464255	114.3122962208	0.0999987565446645	0.266239366028458
24987.5	100	16	0	16	2	1	90	2	2	0	1	22.5	157.5	0.394831651969025	2.54944129236364	0.3	0	0	0	114.612324185669	114.71231026412	0.0999860784504563	0.300027964869514
25087.5	100	17	0	17	2	1	90	2	2	0	2	67.5	112.5	2.73979483389622	-0.470494092195924	0.3	0	0	0	115.012337741675	115.11230114568	0.0999634040053934	0.300027477554977
25145.75	100	18	0	18	2	1	90	2	2	0	1	112.5	67.5	3.12498486497639	-2.21317643196369	0.133333333333333	0	0	0	115.245674512582	115.345656933961	0.0999824213795364	0.133373366901651
25241.75	100	19	0	19	2	1	90	2	2	0	2	67.5	22.5	2.70959653769066	-2.22477835151068	0.283333333333333	0	0	0	115.629019048996	115.729009516072	0.0999904670752585	0.283362115034834
25329.25	100	20	0	20	2	1	90	2	2	3	1	22.5	157.5	-2.30810230004285	1.31592963108649	0.25	0	0	0	115.979037737008	116.079015525989	0.0999777889810503	0.250028220936656
25395.75	100	21	0	21	2	1	90	2	2	3	1	112.5	67.5	-1.08799552521988	2.83530745405555	0.166666666666667	0	0	0	116.245690116426	116.345690823393	0.100000706966966	0.166674590436742
25491.75	100	22	0	22	2	1	90	2	2	3	2	157.5	112.5	-0.57917141285657	1.03673351453786	0.283333333333333	0	0	0	116.629036115715	116.729037310462	0.100001194747165	0.283345292322338
25583.25	100	23	0	23	2	1	90	2	2	1	-1	90	45	-2.07997799548868	-0.966177015771616	0.266666666666667	0	0	0	116.995728455484	117.095708682435	0.09998022695072	0.266691145021468
25666.75	100	24	0	24	2	1	90	2	2	3	1	112.5	157.5	1.64653065670164	0.611023779123707	0.233333333333333	0	0	0	117.329069103114	117.429039577721	0.0999704746063799	0.233360420679674
25766.75	100	25	0	25	2	1	90	2	2	3	2	157.5	22.5	-2.7592800704725	0.985496053799381	0.3	0	0	0	117.729086072184	117.829047526	0.0999614538159221	0.300046494463459
25825	100	26	0	26	2	1	90	2	2	3	2	67.5	112.5	2.43443080830023	-1.55190420694163	0.133333333333333	0	0	0	117.962421136675	118.06238088361	0.0999597469344735	0.133373610675335
25896	100	27	0	27	2	1	90	2	2	3	2	67.5	22.5	0.537594009673855	1.21888071703417	0.183333333333333	0	0	0	118.24576837942	118.345730320551	0.0999619411304593	0.183387495810166
25979.25	100	28	0	28	2	1	90	2	2	0	2	67.5	22.5	0.714793583952767	-1.89037515870959	0.233333333333333	0	0	0	118.579103419324	118.679067554884	0.0999641355592757	0.233373098773882
26054.25	100	29	0	29	2	1	90	2	2	0	1	22.5	157.5	-0.535118636082452	-2.96713635896534	0.2	0	0	0	118.879111879505	118.97908113501	0.0999692555051297	0.200044324621558
26141.75	100	30	0	30	2	1	90	2	2	0	1	112.5	157.5	2.74268412535942	-2.737845344457	0.25	0	0	0	119.229125935119	119.329103480326	0.0999775452073663	0.250044800108299
26200	100	31	0	31	2	1	90	2	2	0	2	157.5	112.5	0.492254410796178	-0.0737942076928491	0.133333333333333	0	0	0	119.462447833735	119.562421721872	0.0999738881364465	0.133344353409484
26250	100	32	0	32	2	1	90	2	2	0	1	22.5	157.5	2.49162614376088	1.23170170756699	0.1	0	0	0	119.66244973545	119.762451417744	0.100001682294533	0.100028013577685
26333.5	100	33	0	33	2	1	90	2	2	0	2	157.5	112.5	2.65586534127914	-1.72445857089448	0.233333333333333	0	0	0	119.995771609712	120.095756956842	0.0999853471294045	0.233320191968232
26404.25	100	34	0	34	2	1	90	2	2	0	2	67.5	22.5	1.20711510594467	-0.64794299732375	0.183333333333333	0	0	0	120.279148353497	120.379127117572	0.0999787640757859	0.18339139665477
26466.75	100	35	0	35	2	1	90	2	2	0	1	22.5	157.5	3.03707203524948	1.21317251113677	0.15	0	0	0	120.52915219334	120.629132176749	0.0999799834098667	0.150025075767189
26529.25	100	36	0	36	2	1	90	2	2	0	2	157.5	112.5	-0.0651643227029912	-1.48840195736096	0.15	0	0	0	120.779136528727	120.879113586154	0.0999770574271679	0.150004351977259
26579.25	100	37	0	37	2	1	90	2	2	0	2	67.5	112.5	-0.838510154004714	0.140209639487939	0.1	0	0	0	120.979162079981	121.079143769806	0.099981689825654	0.100048493826762
26675	100	38	0	38	2	1	90	2	2	0	1	22.5	67.5	2.16143238069495	0.646537137682102	0.283333333333333	0	0	0	121.362489549676	121.462493182393	0.100003632716835	0.283345779869705
26762.5	100	39	0	39	2	1	90	2	2	0	2	157.5	22.5	0.175864576938248	-0.590310861285268	0.25	0	0	0	121.712517502485	121.812495291233	0.0999777887482196	0.250024320092052
26841.75	100	40	0	40	2	1	90	2	2	0	2	67.5	112.5	-1.20123554080774	-1.83189463572396	0.216666666666667	0	0	0	122.029170113383	122.129148633918	0.0999785205349326	0.216674822149798
26937.5	100	41	0	41	2	1	90	2	2	0	1	112.5	157.5	1.13177910274554	1.21075719292141	0.283333333333333	0	0	0	122.412498802179	122.512518770294	0.100019968114793	0.283350168261677
27016.75	100	42	0	42	2	1	90	2	2	0	1	112.5	157.5	-0.15159193283472	1.26332751765834	0.216666666666667	0	0	0	122.729212609353	122.829192836536	0.0999802271835506	0.21669383905828
27091.75	100	43	0	43	2	1	90	2	2	0	2	67.5	22.5	-2.33803835018597	-1.95422171978014	0.2	0	0	0	123.02921838779	123.12918325467	0.0999648668803275	0.20002555125393
27187.5	100	44	0	44	2	1	90	2	2	0	2	157.5	22.5	2.1226993422632	1.93104319347242	0.283333333333333	0	0	0	123.412561461329	123.512532911263	0.0999714499339461	0.283378206659108
27262.5	100	45	0	45	2	1	90	2	2	0	1	22.5	67.5	-0.000343861339632934	0.975545914244152	0.2	0	0	0	123.712552854791	123.812535276171	0.0999824213795364	0.200019943527877
27312.5	100	46	0	46	2	1	90	2	2	0	2	157.5	112.5	2.9629470667634	2.30261072380454	0.1	0	0	0	123.912564752623	124.012568141567	0.100003388943151	0.100029476452619
27383.5	100	47	0	47	2	1	90	2	2	0	2	67.5	112.5	0.211500446859981	1.76048057831434	0.183333333333333	0	0	0	124.195879812585	124.295901487116	0.100021674530581	0.1833116710186
27446	100	48	0	48	2	1	90	2	2	0	2	157.5	22.5	2.74476732422844	-0.0355423481551291	0.15	0	0	0	124.4459060831	124.545910934918	0.100004851818085	0.150004595983773
27500	100	49	0	49	2	1	90	2	2	0	1	22.5	157.5	-1.32487180162169	1.35554002448636	0.116666666666667	0	0	0	124.662602847908	124.762587463483	0.0999846155755222	0.116691912990063
27571	100	50	0	50	2	1	90	2	2	0	2	157.5	22.5	-1.77503773401039	-1.16559286555901	0.183333333333333	0	0	0	124.945945458254	125.045923978556	0.099978520302102	0.183357994770631
27625	100	51	0	51	2	1	90	2	2	0	1	112.5	67.5	0.166543387396366	0.964619620934434	0.116666666666667	0	0	0	125.162610528059	125.262601482682	0.0999909546226263	0.116686549503356
27675	100	52	0	52	2	1	90	2	2	0	1	22.5	67.5	1.67587911973315	-2.62420204503683	0.1	0	0	0	125.362599263899	125.462587780552	0.0999885166529566	0.0999977812170982
27750	100	53	0	53	2	1	90	2	2	0	1	112.5	157.5	2.04123377458524	-0.968251880357635	0.2	0	0	0	125.662626253674	125.762608918827	0.0999826651532203	0.200038473121822
27850	100	54	0	54	2	1	90	2	2	0	1	112.5	67.5	0.926375130294771	0.0379918104783661	0.3	0	0	0	126.062636152375	126.16261125938	0.099975107004866	0.300027233548462
27900	100	55	0	55	2	1	90	2	2	0	1	112.5	157.5	-2.36080910534958	2.42282366989261	0.1	0	0	0	126.262647075113	126.362625839189	0.0999787640757859	0.100035815732554
27991.75	100	56	0	56	2	1	90	2	2	0	2	67.5	112.5	-0.665547720501972	1.15510281776526	0.266666666666667	0	0	0	126.629319178639	126.729308426613	0.0999892479740083	0.266693339450285
28046	100	57	0	57	2	1	90	2	2	0	1	22.5	67.5	-2.92199236497129	2.56999064988783	0.116666666666667	0	0	0	126.845992781688	126.945960818324	0.0999680366367102	0.11668435507454
28146	100	58	0	58	2	1	90	2	2	3	2	157.5	22.5	-0.80747860593592	2.32031360906959	0.3	0	0	0	127.245990489842	127.345964377979	0.0999738881364465	0.300029671518132
28233.5	100	59	0	59	2	1	90	2	2	3	1	22.5	157.5	2.79444010063853	2.95771898882349	0.25	0	0	0	127.59601478558	127.695982334437	0.0999675488565117	0.25005040760152
28316.75	100	60	0	60	2	1	90	2	2	3	1	112.5	67.5	-0.961046670258816	0.738801162702014	0.233333333333333	0	0	0	127.929356164532	128.029335416388	0.0999792518559843	0.233373830094934
28379.25	100	61	0	61	2	1	90	2	2	1	-1	90	45	1.24998925400948	0.733752013483421	0.15	0	0	0	128.179342206568	128.279335842934	0.0999936363659799	0.150006790179759
28450	100	62	0	62	2	1	90	2	2	3	2	67.5	22.5	0.762965613376986	-0.195457647831414	0.183333333333333	0	0	0	128.462701152079	128.562664556084	0.0999634040053934	0.183365309145302
28529.25	100	63	0	63	2	1	90	2	2	3	2	67.5	112.5	-2.24167390033003	-1.75176839752432	0.216666666666667	1	0.492212111596018	1	128.779373267898	128.879360321444	0.0999870535451919	0.216708711814135
28604.25	100	64	0	64	2	1	90	2	2	3	1	112.5	157.5	1.18374626297511	1.86348603753181	0.2	0	0	0	129.07935222704	129.179349520709	0.0999972936697304	0.199991905596107
28654.25	100	65	0	65	2	1	90	2	2	3	1	22.5	67.5	-2.64075004101167	0.693437211056776	0.1	0	0	0	129.279386799317	129.379353129072	0.0999663297552615	0.100037278607488
28712.5	100	66	0	66	2	1	90	2	2	0	1	112.5	157.5	-1.98137678730476	-2.12557884103486	0.133333333333333	0	0	0	129.512728202622	129.612708917353	0.0999807147309184	0.133375073550269
28804.25	100	67	0	67	2	1	90	2	2	0	1	22.5	157.5	0.502132888541277	-1.63399200305503	0.266666666666667	0	0	0	129.879397624405	129.979406621074	0.100008996669203	0.266688707051799
28858.5	100	68	0	68	2	1	90	2	2	0	2	67.5	22.5	-2.34109264558613	-1.75390519854614	0.116666666666667	0	0	0	130.096071715001	130.196055843029	0.0999841280281544	0.116665093926713
28958.5	100	69	0	69	2	1	90	2	2	0	2	67.5	22.5	2.9183109473355	1.39917205248831	0.3	0	0	0	130.496085027	130.596063303528	0.0999782765284181	0.300029183970764
29037.5	100	70	0	70	2	1	90	2	2	0	1	112.5	67.5	-0.467928622733301	0.611893641131263	0.216666666666667	0	0	0	130.812743489631	130.912737613777	0.0999941241461784	0.216680186102167
29108.5	100	71	0	71	2	1	90	2	2	0	1	22.5	67.5	0.8185924805011	-1.87888007053595	0.183333333333333	0	0	0	131.096101216041	131.196088269819	0.0999870537780225	0.183363602263853
29191.75	100	72	0	72	2	1	90	2	2	0	1	112.5	157.5	2.92248412762718	1.17875853689261	0.233333333333333	0	0	0	131.429428210249	131.529426479246	0.0999982689972967	0.233339940430596
29271	100	73	0	73	2	1	90	2	2	0	2	157.5	22.5	-2.46275520454639	0.39788004817755	0.216666666666667	0	0	0	131.746122025186	131.846101033268	0.0999790080823004	0.216695545939729
29358.5	100	74	0	74	2	1	90	2	2	0	2	67.5	22.5	3.1357963382037	-1.46652022493	0.25	0	0	0	132.09611243126	132.196110212477	0.0999977812170982	0.250011397991329
29433.5	100	75	0	75	2	1	90	2	2	0	1	112.5	67.5	-2.89276110276378	-0.348526383897139	0.2	0	0	0	132.396136251511	132.496118916664	0.0999826651532203	0.200026039034128
29525.25	100	76	0	76	2	1	90	2	2	0	2	67.5	22.5	0.636138373963523	3.09555939994239	0.266666666666667	0	0	0	132.762815425638	132.862794677261	0.0999792516231537	0.266696508973837
29616.75	100	77	0	77	2	1	90	2	2	0	1	112.5	67.5	0.979715365492043	-2.25575354680305	0.266666666666667	0	0	0	133.12949021114	133.22947214474	0.0999819335993379	0.266695533879101
29716.75	100	78	0	78	2	1	90	2	2	0	1	22.5	67.5	3.05267255966345	-1.654830146261	0.3	0	0	0	133.529484018218	133.629459125455	0.0999751072376966	0.30001187347807
29783.5	100	79	0	79	2	1	90	2	2	0	2	157.5	22.5	-0.891356870176447	0.589433400325291	0.166666666666667	0	0	0	133.796179308323	133.896149539156	0.099970230832696	0.166720182867721
29837.75	100	80	0	80	2	1	90	2	2	0	2	67.5	112.5	2.80706145673554	2.13583109154739	0.116666666666667	0	0	0	134.012852179818	134.112811926985	0.0999597471673042	0.11670264066197
29916.75	100	81	0	81	2	1	90	2	2	0	1	22.5	157.5	0.943737586324948	2.64968068273069	0.216666666666667	0	0	0	134.329496745253	134.429504035041	0.100007289787754	0.216684818267822
29983.5	100	82	0	82	2	1	90	2	2	0	2	157.5	112.5	-0.146648205512065	-0.633551042002895	0.166666666666667	0	0	0	134.596178625477	134.696189085022	0.100010459544137	0.166674590436742
30079.25	100	83	0	83	2	1	90	2	2	0	1	22.5	157.5	-2.07506200505311	1.68930618799716	0.283333333333333	0	0	0	134.979540716158	135.079521187115	0.0999804709572345	0.283351631136611
30137.75	100	84	0	84	2	1	90	2	2	0	2	67.5	112.5	-1.66023663473053	-2.39700666895172	0.133333333333333	0	0	0	135.212857738603	135.312863565749	0.100005827145651	0.133336551487446
30237.75	100	85	0	85	2	1	90	2	2	0	1	112.5	157.5	-0.847071672953723	-0.715296314450976	0.3	0	0	0	135.612872269703	135.712871270254	0.0999990005511791	0.300008703954518
30329.25	100	86	0	86	2	1	90	2	2	0	2	157.5	22.5	-0.965869498852675	2.24256942879691	0.266666666666667	0	0	0	135.979571680073	136.079573118594	0.100001438520849	0.266700409818441
30400.25	100	87	0	87	2	1	90	2	2	0	1	22.5	157.5	-0.80585473190904	1.03687766008644	0.183333333333333	0	0	0	136.26290917024	136.362888909876	0.0999797396361828	0.18333605164662
30491.75	100	88	0	88	2	1	90	2	2	3	1	22.5	157.5	1.93580760905242	-0.33528488796556	0.266666666666667	0	0	0	136.62958785682	136.729571497301	0.0999836404807866	0.266698946943507
30558.5	100	89	0	89	2	1	90	2	2	3	1	112.5	157.5	-0.78593386093413	0.619386360698094	0.166666666666667	0	0	0	136.896255840082	136.996240943205	0.09998510312289	0.166684342781082
30612.75	100	90	0	90	2	1	90	2	2	3	1	22.5	67.5	0.808555275107356	-0.0788991587349468	0.116666666666667	0	0	0	137.112913351739	137.212916253135	0.100002901395783	0.116672408534214
30712.75	100	91	0	91	2	1	90	2	2	2	-1	45	90	-2.89917969695674	0.301237898231171	0.3	0	0	0	137.512942998903	137.612924932735	0.0999819338321686	0.300026745768264
30791.75	100	92	0	92	2	1	90	2	2	3	2	157.5	22.5	-2.2575701742266	2.41311786666628	0.216666666666667	0	0	0	137.829615114722	137.929562915117	0.0999478003941476	0.21669018198736
30875.25	100	93	0	93	2	1	90	2	2	3	2	67.5	112.5	1.31897441463191	2.98857343143922	0.233333333333333	0	0	0	138.162956981454	138.262943059905	0.0999860784504563	0.233394066337496
30950.25	100	94	0	94	2	1	90	2	2	3	1	112.5	67.5	2.45409047059617	-1.88286310826947	0.2	0	0	0	138.462968123611	138.562932746718	0.0999646231066436	0.200025063706562
31021	100	95	0	95	2	1	90	2	2	3	2	67.5	22.5	-1.17415410455562	1.60270947578922	0.183333333333333	0	0	0	138.746307808207	138.846291204682	0.099983396474272	0.183375061489642
31104.25	100	96	0	96	2	1	90	2	2	0	2	67.5	112.5	-2.93769520637007	2.79416190784831	0.233333333333333	0	0	0	139.079647968058	139.179632583633	0.0999846155755222	0.233356763375923
31154.25	100	97	0	97	2	1	90	2	2	0	2	67.5	22.5	-1.68002272893983	0.674078883853933	0.1	0	0	0	139.279658159241	139.379637898644	0.0999797394033521	0.100025575608015
31216.75	100	98	0	98	2	1	90	2	2	0	1	112.5	157.5	-0.876533677079662	0.00295024085783968	0.15	0	0	0	139.529659073567	139.629633936798	0.0999748632311821	0.150021174922585
31283.5	100	99	0	99	2	1	90	2	2	0	2	67.5	112.5	-0.839280761130347	-0.800950892319036	0.166666666666667	0	0	0	139.79632535018	139.89631362306	0.0999882728792727	0.166691413382068
31354.25	100	100	0	100	2	1	90	2	2	0	2	157.5	112.5	0.386397728172098	-0.100296779848941	0.183333333333333	0	0	0	140.079668935621	140.179656720953	0.0999877853319049	0.183355312561616
31450.25	100	101	0	101	2	1	90	2	2	0	2	67.5	112.5	-1.24575155872002	0.506848641503239	0.283333333333333	0	0	0	140.46300835209	140.563007108634	0.0999987565446645	0.283351631136611
31537.75	100	102	0	102	2	1	90	2	2	0	1	22.5	67.5	0.923843733861696	0.700032430999239	0.25	0	0	0	140.813032403821	140.912993613863	0.0999612100422382	0.250025295186788
31596	100	103	0	103	2	1	90	2	2	0	1	22.5	67.5	1.79648072335453	-2.42535156405481	0.133333333333333	0	0	0	141.046353814891	141.14633623627	0.0999824213795364	0.133360201027244
31662.75	100	104	0	104	2	1	90	2	2	0	1	22.5	157.5	1.77952629481137	3.13411966754382	0.166666666666667	0	0	0	141.313046666794	141.413013971876	0.0999673050828278	0.166710430523381
31712.75	100	105	0	105	2	1	90	2	2	0	2	157.5	22.5	1.51697687150015	-1.40761331181513	0.1	0	0	0	141.513046618085	141.613037085161	0.0999904670752585	0.100032646209002
31808.5	100	106	0	106	2	1	90	2	2	0	2	157.5	112.5	0.528139346456581	0.298460428275232	0.283333333333333	0	0	0	141.896396274446	141.996360897552	0.0999646231066436	0.283359189284965
31908.5	100	107	0	107	2	1	90	2	2	0	2	157.5	22.5	-1.50294298170149	-1.89572156215797	0.3	0	0	0	142.296389837749	142.396364944987	0.0999751072376966	0.30002894019708
31979.25	100	108	0	108	2	1	90	2	2	0	1	112.5	157.5	2.14529293087636	0.825383057963291	0.183333333333333	0	0	0	142.579725865275	142.67973413039	0.100008265115321	0.183360920287669
32033.5	100	109	0	109	2	1	90	2	2	0	2	157.5	112.5	-1.32209897048853	-2.67271476677011	0.116666666666667	0	0	0	142.796405076049	142.896402125945	0.0999970498960465	0.11667094565928
32091.75	100	110	0	110	2	1	90	2	2	0	2	157.5	22.5	2.26246364344147	-1.03459264277981	0.133333333333333	0	0	0	143.0297633023	143.129730119836	0.09996681753546	0.133361176354811
32154.25	100	111	0	111	2	1	90	2	2	0	1	112.5	67.5	-0.332188873694925	-0.724564940640439	0.15	0	0	0	143.279765191721	143.379749075975	0.0999838842544705	0.150035071885213
32208.5	100	112	0	112	2	1	90	2	2	0	1	112.5	157.5	0.811809199030873	-1.17510741857015	0.116666666666667	0	0	0	143.496440257644	143.596422191476	0.0999819338321686	0.116691181669012
32275.25	100	113	0	113	2	1	90	2	2	0	1	112.5	67.5	-0.00475703985769149	-0.0802425029336722	0.166666666666667	0	0	0	143.763099463657	143.863070669817	0.0999712061602622	0.166677272180095
32337.75	100	114	0	114	2	1	90	2	2	0	1	22.5	67.5	0.966735844625728	-2.14741328382687	0.15	0	0	0	144.013100865763	144.11308084894	0.099979983177036	0.150030195945874
32400.25	100	115	0	115	2	1	90	2	2	0	2	67.5	112.5	-0.998870065595766	-0.0586632613816249	0.15	0	0	0	144.263128355145	144.363108094549	0.0999797394033521	0.150047506205738
32475.25	100	116	0	116	2	1	90	2	2	0	2	157.5	22.5	0.492539236693416	1.85719581458205	0.2	0	0	0	144.563135840232	144.663117773831	0.0999819335993379	0.200027745682746
32529.25	100	117	0	117	2	1	90	2	2	3	2	67.5	22.5	1.48635286162579	0.808411804819678	0.116666666666667	0	0	0	144.779815050773	144.879772847285	0.0999577965121716	0.116697276942432
32587.75	100	118	0	118	2	1	90	2	2	3	2	157.5	112.5	-0.871036792400075	2.95404875099343	0.133333333333333	0	0	0	145.013148164842	145.113107911777	0.0999597469344735	0.133375317556784
32679.25	100	119	0	119	2	1	90	2	2	3	1	22.5	67.5	0.631218519662651	2.82812694992522	0.266666666666667	0	0	0	145.379827338737	145.479791474529	0.0999641357921064	0.266719426959753
32750.25	100	120	0	120	2	1	90	2	2	2	-1	45	90	-0.273733489851062	-0.141334325577993	0.183333333333333	0	0	0	145.66314678709	145.763136035297	0.099989248206839	0.183355312561616
32850.25	100	121	0	121	2	1	90	2	2	3	1	112.5	67.5	-0.188304728553536	-0.201689843274572	0.3	0	0	0	146.063159367768	146.163141789148	0.0999824213795364	0.300023332471028
32912.75	100	122	0	122	2	1	90	2	2	3	1	112.5	157.5	-0.731207829531955	1.64918117429145	0.15	0	0	0	146.313161988743	146.413142947247	0.0999809585046023	0.150020199595019
33000.25	100	123	0	123	2	1	90	2	2	3	2	67.5	112.5	0.292975936462474	2.38615963102468	0.25	0	0	0	146.663195793051	146.763174557127	0.0999787640757859	0.250052845804021
33050.25	100	124	0	124	2	1	90	2	2	3	2	157.5	22.5	1.31531894174203	0.257593751016055	0.1	0	0	0	146.863199888961	146.963185236091	0.0999853471294045	0.100025331834331
33133.5	100	125	0	125	2	1	90	2	2	0	1	112.5	67.5	-2.04997335154898	1.05112161009054	0.233333333333333	0	0	0	147.196544193663	147.296523689292	0.0999794956296682	0.233358957571909
33217	100	126	0	126	2	1	90	2	2	0	1	22.5	157.5	-2.22359505693579	1.19857365364151	0.233333333333333	0	0	0	147.529887523269	147.62986531225	0.0999777889810503	0.23336383397691
33304.5	100	127	0	127	2	1	90	2	2	0	1	112.5	67.5	2.03093995951343	0.0876103843270353	0.25	0	0	0	147.879876466468	147.97987571056	0.0999992440920323	0.250011154217646
33396	100	128	0	128	2	1	90	2	2	0	2	157.5	112.5	-2.58558236002734	0.0518120010895982	0.266666666666667	0	0	0	148.246567587135	148.346550983842	0.0999833967071027	0.266691876575351
33454.5	100	129	0	129	2	1	90	2	2	0	2	67.5	22.5	1.8415211688842	-0.621879596750881	0.133333333333333	0	0	0	148.479907771572	148.579894337803	0.0999865662306547	0.133356787730008
33537.75	100	130	0	130	2	1	90	2	2	0	2	157.5	22.5	1.62789326158537	-0.321891856009079	0.233333333333333	0	0	0	148.813250369625	148.913233278552	0.0999829089269042	0.233356031822041
33587.75	100	131	0	131	2	1	90	2	2	0	1	112.5	67.5	-1.77402312056081	-0.162704350157723	0.1	0	0	0	149.013231791323	149.11322103953	0.099989248206839	0.0999985127709806
33671	100	132	0	132	2	1	90	2	2	0	1	22.5	67.5	0.854704967762377	1.90250196120042	0.233333333333333	0	0	0	149.346597063821	149.446557298535	0.099960234714672	0.233376024290919
33771	100	133	0	133	2	1	90	2	2	0	2	157.5	112.5	-1.54930945662726	-2.13753996690464	0.3	0	0	0	149.746595259523	149.846591090551	0.099995831027627	0.300037960987538
33842	100	134	0	134	2	1	90	2	2	0	1	112.5	67.5	2.39801858306939	-2.402349458516	0.183333333333333	0	0	0	150.029940795619	150.129922973225	0.0999821776058525	0.183349705068395
33933.5	100	135	0	135	2	1	90	2	2	0	1	112.5	157.5	-1.90189958421896	2.66018917671102	0.266666666666667	0	0	0	150.396616800223	150.496605316876	0.0999885166529566	0.266693826997653
34008.5	100	136	0	136	2	1	90	2	2	0	2	67.5	112.5	-2.41480568210755	0.0647415827347966	0.2	0	0	0	150.69662501663	150.796609632205	0.0999846155755222	0.200019699754193
34096	100	137	0	137	2	1	90	2	2	0	2	157.5	112.5	-2.91167499715712	1.23713903513723	0.25	0	0	0	151.046637853142	151.14661612967	0.0999782765284181	0.250028220936656
34175.25	100	138	0	138	2	1	90	2	2	0	2	67.5	22.5	1.37301480350534	2.61245950658061	0.216666666666667	0	0	0	151.363323622383	151.463293365436	0.0999697430524975	0.216707492712885
34271	100	139	0	139	2	1	90	2	2	0	1	112.5	67.5	-1.81061839460934	1.48439415172595	0.283333333333333	0	0	0	151.746658894001	151.846639364725	0.0999804707244039	0.2833655285649
34371	100	140	0	140	2	1	90	2	2	3	2	67.5	22.5	-1.16680346940463	0.417734387166111	0.3	0	0	0	152.146651969757	152.24664048641	0.0999885166529566	0.300012605031952
34462.75	100	141	0	141	2	1	90	2	2	3	1	22.5	67.5	2.99688061019212	2.84051963747059	0.266666666666667	0	0	0	152.513353330549	152.613315515686	0.0999621851369739	0.266712844138965
34525.25	100	142	0	142	2	1	90	2	2	3	1	112.5	157.5	1.48332599791095	0.779818763098841	0.15	0	0	0	152.763354488648	152.863337397575	0.0999829089269042	0.150038972962648
34596	100	143	0	143	2	1	90	2	2	3	2	157.5	22.5	1.49291174458822	-0.335200429934896	0.183333333333333	0	0	0	153.046681982698	153.146680007922	0.0999980252236128	0.183344585122541
35829.5	100	144	1	0	2	2	90	2	2	3	2	67.5	22.5	-2.90098637448792	1.92083946135321	0.266666666666667	0	0	0	157.980126590701	158.080110231182	0.0999836404807866	-1
35912.75	100	145	1	1	2	2	90	2	2	3	2	157.5	112.5	-0.224094481231452	0.69637716612299	0.233333333333333	0	0	0	158.313495276496	158.413465019781	0.0999697432853281	0.233385045314208
35971	100	146	1	2	2	2	90	2	2	3	1	22.5	67.5	2.97958338826442	2.56555064894172	0.133333333333333	0	0	0	158.5468413122	158.646822270704	0.0999809585046023	0.133376292418689
36037.75	100	147	1	3	2	2	90	2	2	3	2	67.5	112.5	1.34039037515071	2.69595903245868	0.166666666666667	0	0	0	158.813515634509	158.913507564459	0.0999919299501926	0.16669336380437
36087.75	100	148	1	4	2	2	90	2	2	0	2	157.5	22.5	0.266973461090552	-0.0377422989799658	0.1	0	0	0	159.013520461973	159.11350093293	0.0999804709572345	0.100012897513807
36154.5	100	149	1	5	2	2	90	2	2	0	1	112.5	67.5	1.23305440034332	1.99425179750102	0.166666666666667	0	0	0	159.280195759609	159.380147217074	0.0999514574650675	0.166694826679304
36225.25	100	150	1	6	2	2	90	2	2	0	2	157.5	112.5	-2.47124958226368	-2.63959557421122	0.183333333333333	0	0	0	159.563525935635	159.663508356782	0.0999824211467057	0.183378718560562
36279.5	100	151	1	7	2	2	90	2	2	0	1	22.5	67.5	-1.89628847250336	2.36774596435955	0.116666666666667	0	0	0	159.780207828153	159.880188055104	0.09998022695072	0.116699471371248
36379.5	100	152	1	8	2	2	90	2	2	0	1	112.5	157.5	1.22587625822325	-1.49830427885488	0.3	0	0	0	160.180206999183	160.280188201461	0.0999812022782862	0.300018944079056
36433.5	100	153	1	9	2	2	90	2	2	0	1	112.5	67.5	-1.68355202709075	2.54581731989469	0.116666666666667	0	0	0	160.396893036552	160.496853271034	0.0999602344818413	0.116704835090786
36533.75	100	154	1	10	2	2	90	2	2	0	1	112.5	67.5	-0.501307855687759	1.25266121654138	0.3	0	0	0	160.796911224723	160.896869021235	0.0999577965121716	0.300057953689247
36587.75	100	155	1	11	2	2	90	2	2	0	2	67.5	22.5	-0.705671341826903	1.44093643130568	0.116666666666667	0	0	0	161.013578244951	161.113559934776	0.099981689825654	0.116709223715588
36646.25	100	156	1	12	2	2	90	2	2	0	2	157.5	22.5	-1.4321602085777	0.0554372017662899	0.133333333333333	0	0	0	161.246920623584	161.346883540042	0.0999629164580256	0.133360688807443
36717	100	157	1	13	2	2	90	2	2	0	1	22.5	67.5	2.4992593633847	-2.9221201086376	0.183333333333333	0	0	0	161.530261527281	161.630226394162	0.0999648668803275	0.18337798723951
36767	100	158	1	14	2	2	90	2	2	0	1	112.5	67.5	-2.51186751094862	0.536714605378792	0.1	0	0	0	161.73024660605	161.830251214094	0.100004608044401	0.100020211888477
36837.75	100	159	1	15	2	2	90	2	2	0	2	67.5	112.5	0.601308542308067	2.21651710204428	0.183333333333333	0	0	0	162.013591654366	162.113571881549	0.0999802271835506	0.183340440271422
36904.5	100	160	1	16	2	2	90	2	2	0	2	157.5	22.5	-2.64524286587628	-0.0381502981912147	0.166666666666667	0	0	0	162.280257199658	162.380248398054	0.0999911983963102	0.166685318108648
36975.25	100	161	1	17	2	2	90	2	2	0	1	112.5	157.5	-2.31440726287622	0.907821347916481	0.183333333333333	0	0	0	162.563621021342	162.663600029191	0.0999790078494698	0.183372623287141
37025.25	100	162	1	18	2	2	90	2	2	3	1	22.5	67.5	-1.47982781903923	-0.157825953774167	0.1	0	0	0	162.763628286775	162.863592422334	0.0999641355592757	0.100028257584199
37121.25	100	163	1	19	2	2	90	2	2	3	2	157.5	22.5	-0.22480076863582	-0.459456277473814	0.283333333333333	0	0	0	163.146973554511	163.246934032999	0.0999604784883559	0.283381132176146
37204.5	100	164	1	20	2	2	90	2	2	3	1	112.5	157.5	-0.211318352323081	2.736316960759	0.233333333333333	0	0	0	163.480319078546	163.5802958922	0.099976813653484	0.233385045547038
37271.25	100	165	1	21	2	2	90	2	2	2	-1	135	90	0.952357551416355	-1.88759089210975	0.166666666666667	0	0	0	163.746987549355	163.846969726728	0.0999821773730218	0.166691657155752
37346.25	100	166	1	22	2	2	90	2	2	3	2	67.5	112.5	2.11372452487985	1.60758539897081	0.2	0	0	0	164.04699088959	164.146963558393	0.0999726688023657	0.200021162861958
37433.75	100	167	1	23	2	2	90	2	2	3	2	157.5	112.5	-0.0441034167636243	2.09295616523571	0.25	0	0	0	164.396996655501	164.496978833107	0.0999821776058525	0.250033097108826
37512.75	100	168	1	24	2	2	90	2	2	3	2	67.5	22.5	-3.01161156362493	-2.33393928287856	0.216666666666667	0	0	0	164.713678523665	164.81363875838	0.099960234714672	0.216699690558016
37583.75	100	169	1	25	2	2	90	2	2	3	1	112.5	67.5	-2.16832900826505	2.50632074385799	0.183333333333333	0	0	0	164.99702040269	165.097001361195	0.0999809585046023	0.18338164431043
37650.25	100	170	1	26	2	2	90	2	2	0	1	22.5	67.5	2.7112635360323	3.08772215587336	0.166666666666667	0	0	0	165.263694481226	165.363673976623	0.0999794953968376	0.166693120030686
37712.75	100	171	1	27	2	2	90	2	2	0	2	157.5	112.5	2.92441257855406	2.54357040724596	0.15	0	0	0	165.51370539167	165.61366782058	0.0999624289106578	0.150031415047124
37771.25	100	172	1	28	2	2	90	2	2	0	2	157.5	112.5	0.902880586063419	1.57479802653754	0.133333333333333	0	0	0	165.747043137904	165.847000934416	0.0999577965121716	0.133375317323953
37833.75	100	173	1	29	2	2	90	2	2	0	1	22.5	157.5	-2.9246769153949	1.0099072111769	0.15	0	0	0	165.997048440855	166.097019646782	0.0999712059274316	0.150047506438568
37925.25	100	174	1	30	2	2	90	2	2	0	1	112.5	67.5	2.36065558266825	-0.999369548419604	0.266666666666667	0	0	0	166.36371347378	166.463697358035	0.0999838842544705	0.266693826997653
37975.25	100	175	1	31	2	2	90	2	2	0	1	22.5	157.5	1.45627200824796	-0.671354678964955	0.1	0	0	0	166.563720739447	166.663701941725	0.0999812022782862	0.100023381412029
38067	100	176	1	32	2	2	90	2	2	0	2	67.5	22.5	-1.88793898481256	0.418942620621433	0.266666666666667	0	0	0	166.930398450699	167.030378677649	0.09998022695072	0.266696508973837
38121.25	100	177	1	33	2	2	90	2	2	0	2	157.5	112.5	-0.406579223735878	1.53652834041303	0.116666666666667	0	0	0	167.147070590872	167.247051549377	0.0999809585046023	0.116691913222894
38171.25	100	178	1	34	2	2	90	2	2	0	1	22.5	67.5	2.83027787085011	-1.6852828044568	0.1	0	0	0	167.347073711688	167.447046136716	0.0999724250286818	0.100022162310779
38246.25	100	179	1	35	2	2	90	2	2	0	1	22.5	157.5	-0.739589732250803	-2.51326629465631	0.2	0	0	0	167.647091436666	167.747074589366	0.0999831527005881	0.200045299949124
38304.5	100	180	1	36	2	2	90	2	2	0	1	112.5	67.5	0.165284280221025	-2.37699936577355	0.133333333333333	0	0	0	167.880407483783	167.980422087945	0.100014604162425	0.133332894416526
38383.75	100	181	1	37	2	2	90	2	2	0	1	22.5	67.5	-2.3188112129941	0.181776119428323	0.216666666666667	0	0	0	168.197113489034	168.2970720171	0.099958528066054	0.21669140108861
38442	100	182	1	38	2	2	90	2	2	0	1	22.5	67.5	1.66241762908867	0.465196451244382	0.133333333333333	0	0	0	168.430446115322	168.53041537106	0.0999692557379603	0.133374098222703
38521.25	100	183	1	39	2	2	90	2	2	0	1	22.5	157.5	0.372410932073927	-3.01487647125708	0.216666666666667	0	0	0	168.747120669344	168.847102115396	0.0999814460519701	0.216705298284069
38579.5	100	184	1	40	2	2	90	2	2	0	1	112.5	157.5	-1.8674911867495	-1.13186432787094	0.133333333333333	0	0	0	168.980460366001	169.08042133227	0.0999609662685543	0.133358250604942
38642	100	185	1	41	2	2	90	2	2	0	2	157.5	22.5	0.235349799533334	-0.897088445189204	0.15	0	0	0	169.230471520452	169.330447602784	0.0999760823324323	0.150050188181922
38704.5	100	186	1	42	2	2	90	2	2	0	1	112.5	157.5	1.76369401150986	-2.51032493327582	0.15	0	0	0	169.480475116521	169.580455099931	0.0999799834098667	0.150027513736859
38804.5	100	187	1	43	2	2	90	2	2	3	2	157.5	22.5	-0.616215753441173	-2.25566625909837	0.3	0	0	0	169.880461365683	169.980444030836	0.0999826651532203	0.300006265752017
38900.25	100	188	1	44	2	2	90	2	2	3	2	67.5	112.5	1.56072060309053	-1.27289004480354	0.283333333333333	0	0	0	170.263825163012	170.363792468095	0.0999673050828278	0.283381132176146
38979.5	100	189	1	45	2	2	90	2	2	3	1	112.5	67.5	-0.973098046432515	-2.20528483872448	0.216666666666667	0	0	0	170.580502398778	170.680486039259	0.0999836404807866	0.216709930682555
39071.25	100	190	1	46	2	2	90	2	2	1	-1	90	135	1.43970568196784	-2.07732323560384	0.266666666666667	0	0	0	170.947180841584	171.047143758042	0.0999629164580256	0.266694802325219
39133.75	100	191	1	47	2	2	90	2	2	3	1	22.5	157.5	0.66628136032695	0.495204689224551	0.15	0	0	0	171.197195653105	171.297169053461	0.099973400356248	0.15005189506337
39208.75	100	192	1	48	2	2	90	2	2	3	1	22.5	67.5	2.98913354914631	1.48311588758705	0.2	1	0.541980236303061	1	171.497197530232	171.597162397346	0.0999648671131581	0.200028476770967
39258.75	100	193	1	49	2	2	90	2	2	3	2	67.5	22.5	-2.31369556808297	0.853290827546327	0.1	0	0	0	171.6972001635	171.797146988567	0.0999468250665814	0.100037766154855
39342	100	194	1	50	2	2	90	2	2	3	2	157.5	112.5	-0.687160116632244	-3.01158527566564	0.233333333333333	0	0	0	172.030511797639	172.130493243923	0.0999814462848008	0.233364809071645
39421.25	100	195	1	51	2	2	90	2	2	0	1	112.5	157.5	-1.27751239809804	1.73515683534211	0.216666666666667	0	0	0	172.347219265997	172.447199980495	0.0999807144980878	0.216726022073999
39475.25	100	196	1	52	2	2	90	2	2	0	1	112.5	157.5	-2.49619192552144	2.28794428865888	0.116666666666667	0	0	0	172.56386653753	172.663867244497	0.100000706966966	0.116666557034478
39571.25	100	197	1	53	2	2	90	2	2	0	2	157.5	112.5	-1.09960434831575	-1.42488038046981	0.283333333333333	0	0	0	172.947223508265	173.047184230527	0.0999607222620398	0.283356263767928
39646.25	100	198	1	54	2	2	90	2	2	0	1	112.5	157.5	0.459603302512237	2.60624246578646	0.2	0	0	0	173.247212219751	173.34720341838	0.0999911986291409	0.200027989223599
39717	100	199	1	55	2	2	90	2	2	0	2	67.5	22.5	0.753938923359709	1.12298734483364	0.183333333333333	0	0	0	173.530576772988	173.630542371422	0.0999655984342098	0.183373354608193
39783.75	100	200	1	56	2	2	90	2	2	0	2	157.5	112.5	3.05433465131881	-0.68257875359543	0.166666666666667	0	0	0	173.797236710554	173.89723376045	0.0999970498960465	0.166694339131936
39879.5	100	201	1	57	2	2	90	2	2	0	2	67.5	112.5	1.21915588602193	1.69217401553533	0.283333333333333	0	0	0	174.180598801235	174.280583173037	0.0999843718018383	0.283365040784702
39958.75	100	202	1	58	2	2	90	2	2	0	1	112.5	67.5	2.2740690348119	1.53117936899273	0.216666666666667	0	0	0	174.497273842804	174.597235540161	0.0999616973567754	0.216690669767559
40021.25	100	203	1	59	2	2	90	2	2	0	2	67.5	22.5	-2.88684956514138	-0.73086740043141	0.15	0	0	0	174.747301088413	174.847248157486	0.0999470690730959	0.150065548252314
40092	100	204	1	60	2	2	90	2	2	0	1	112.5	67.5	-2.63082875914282	-0.708972892110597	0.183333333333333	0	0	0	175.030616879696	175.130598569522	0.099981689825654	0.183368722209707
40142	100	205	1	61	2	2	90	2	2	0	2	67.5	22.5	-0.63373021913513	1.81618133557023	0.1	0	0	0	175.230622682255	175.33059242554	0.0999697432853281	0.100024112733081
40217	100	206	1	62	2	2	90	2	2	0	2	157.5	22.5	-2.89991936160502	-0.425854085511504	0.2	0	0	0	175.530632117763	175.630599422846	0.0999673050828278	0.200039692223072
40304.5	100	207	1	63	2	2	90	2	2	0	2	67.5	22.5	2.33648023944203	-2.32546350048283	0.25	0	0	0	175.880641297204	175.980625425233	0.0999841280281544	0.250041874358431
40388	100	208	1	64	2	2	90	2	2	0	1	22.5	67.5	-0.47835120527494	-2.36836405265402	0.233333333333333	0	0	0	176.213986577233	176.313964853762	0.0999782765284181	0.233361152000725
40438	100	209	1	65	2	2	90	2	2	0	2	157.5	112.5	2.94373888988115	1.21167889057101	0.1	0	0	0	176.413974825526	176.513972119428	0.0999972939025611	0.100009971763939
40538	100	210	1	66	2	2	90	2	2	0	2	67.5	22.5	1.53291879246513	1.73466455092592	0.3	0	0	0	176.813986187102	176.913981042802	0.0999948557000607	0.300014067674056
40613	100	211	1	67	2	2	90	2	2	0	1	112.5	67.5	1.74338035944185	3.12487774438854	0.2	0	0	0	177.114004887408	177.213968047639	0.0999631602317095	0.200023844605312
40704.5	100	212	1	68	2	2	90	2	2	0	2	157.5	112.5	0.407377449391367	-2.53156042803564	0.266666666666667	0	0	0	177.480678697582	177.580655023688	0.0999763261061162	0.266710649942979
40804.5	100	213	1	69	2	2	90	2	2	0	1	22.5	157.5	1.97326982129056	2.90940233471505	0.3	0	0	0	177.880687864963	177.98067028611	0.0999824211467057	0.300032841274515
40900.5	100	214	1	70	2	2	90	2	2	0	1	112.5	67.5	-0.469766003534692	2.57636878767521	0.283333333333333	0	0	0	178.2640285003	178.364015797852	0.0999872975517064	0.28335821419023
40950.5	100	215	1	71	2	2	90	2	2	0	1	112.5	157.5	2.48406179778163	1.56988255145033	0.1	0	0	0	178.464039179264	178.564022819512	0.0999836402479559	0.100023381412029
41033.75	100	216	1	72	2	2	90	2	2	0	1	112.5	67.5	-2.30849725927261	-0.209052738601668	0.233333333333333	0	0	0	178.797386653489	178.897363710916	0.0999770574271679	0.23336383397691
41108.75	100	217	1	73	2	2	90	2	2	0	2	67.5	112.5	1.38464271166123	-2.08730164674524	0.2	0	0	0	179.097381948028	179.19737534062	0.099993392592296	0.20001823711209
41188	100	218	1	74	2	2	90	2	2	0	2	67.5	112.5	-1.03906996683319	-0.522560650624712	0.216666666666667	0	0	0	179.414065766614	179.514050382189	0.0999846155755222	0.216690425993875
41275.5	100	219	1	75	2	2	90	2	2	0	1	112.5	67.5	-1.54092748774105	-0.101453907023957	0.25	0	0	0	179.764073726954	179.864055173006	0.0999814460519701	0.250023344764486
41350.5	100	220	1	76	2	2	90	2	2	3	2	157.5	22.5	-1.34959844359991	2.30428828719337	0.2	0	0	0	180.064069752814	180.164057537913	0.0999877850990742	0.200014579808339
41408.75	100	221	1	77	2	2	90	2	2	3	1	112.5	67.5	2.4900951735987	0.123603883706616	0.133333333333333	0	0	0	180.297407499049	180.397371391067	0.0999638920184225	0.133349961135536
41508.75	100	222	1	78	2	2	90	2	2	3	2	67.5	112.5	-1.65064862080543	2.61197465927968	0.3	0	0	0	180.697435439797	180.797420299146	0.0999848593492061	0.300064048729837
41558.75	100	223	1	79	2	2	90	2	2	2	-1	45	90	-2.64697002885867	0.228224468288144	0.1	0	0	0	180.897427589167	180.997432928532	0.100005339365453	0.100007290020585
41629.5	100	224	1	80	2	2	90	2	2	3	2	157.5	112.5	1.57667367983092	-0.611021941192052	0.183333333333333	0	0	0	181.180790191749	181.280769931152	0.0999797394033521	0.183357263216749
41696.25	100	225	1	81	2	2	90	2	2	3	1	22.5	67.5	-0.952858120828664	-3.03777359018407	0.166666666666667	0	0	0	181.447466708254	181.547444253461	0.0999775452073663	0.166696777101606
41758.75	100	226	1	82	2	2	90	2	2	3	1	22.5	157.5	-1.01286841948082	-0.676069877720144	0.15	0	0	0	181.697471035877	181.797430539271	0.0999595033936203	0.150026782415807
41838	100	227	1	83	2	2	90	2	2	3	2	67.5	22.5	1.53608406771688	0.0216214319171608	0.216666666666667	0	0	0	182.014128766954	182.114108750131	0.099979983177036	0.216698227683082
41925.5	100	228	1	84	2	2	90	2	2	0	2	157.5	22.5	-1.85415217554781	2.01075026597521	0.25	0	0	0	182.364180369303	182.464136946714	0.0999565774109215	0.250071619171649
42000.5	100	229	1	85	2	2	90	2	2	0	1	22.5	67.5	3.03896936772308	0.63337265992135	0.2	0	0	0	182.664149088552	182.764148576418	0.0999994878657162	0.20001214183867
42083.75	100	230	1	86	2	2	90	2	2	0	2	67.5	22.5	-2.66970046702526	2.75911953681536	0.233333333333333	0	0	0	182.99750802177	183.097486054525	0.0999780327547342	0.233359445352107
42171.25	100	231	1	87	2	2	90	2	2	0	2	67.5	112.5	3.06031953185286	0.677849272804527	0.25	0	0	0	183.347512812819	183.447499135043	0.0999863222241402	0.250026758294553
42267	100	232	1	88	2	2	90	2	2	0	1	22.5	67.5	2.9365114170811	-1.58093087850211	0.283333333333333	0	0	0	183.73085954343	183.830824410543	0.0999648671131581	0.283360408386216
42350.5	100	233	1	89	2	2	90	2	2	0	2	157.5	22.5	-2.4207722035708	0.479034803391599	0.233333333333333	0	0	0	184.064190194709	184.164177980041	0.0999877853319049	0.233365784166381
42413	100	234	1	90	2	2	90	2	2	0	2	67.5	112.5	1.73412074229631	-2.00826808111927	0.15	0	0	0	184.31419549766	184.414173286641	0.0999777889810503	0.150017517618835
42500.5	100	235	1	91	2	2	90	2	2	0	1	112.5	157.5	-2.67117669828182	-0.669479542362699	0.25	0	0	0	184.66420394578	184.764194168849	0.0999902230687439	0.250030659139156
42575.5	100	236	1	92	2	2	90	2	2	0	2	157.5	112.5	1.60320442330388	1.49325948522166	0.2	0	0	0	184.964218257228	185.064199459506	0.0999812022782862	0.200024088378996
42658.75	100	237	1	93	2	2	90	2	2	0	2	157.5	112.5	0.732076428757676	1.13708723523543	0.233333333333333	0	0	0	185.297556466889	185.397539375816	0.0999829089269042	0.233357007382438
42725.5	100	238	1	94	2	2	90	2	2	0	1	22.5	157.5	1.75107728983608	-0.984137458300416	0.166666666666667	0	0	0	185.56423273962	185.664221012266	0.0999882726464421	0.16669336380437
42821.25	100	239	1	95	2	2	90	2	2	0	1	112.5	157.5	-0.489225428880164	2.00859599320405	0.283333333333333	0	0	0	185.947578495136	186.047557015438	0.099978520302102	0.283357482869178
42908.75	100	240	1	96	2	2	90	2	2	0	2	157.5	112.5	-3.05698519077446	-2.3311635956248	0.25	0	0	0	186.297584992601	186.397565707332	0.0999807147309184	0.250027977162972
42958.75	100	241	1	97	2	2	90	2	2	0	2	67.5	112.5	-2.45432000235269	1.88000449985649	0.1	0	0	0	186.497593720909	186.597573704086	0.099979983177036	0.100028013577685
43058.75	100	242	1	98	2	2	90	2	2	0	2	157.5	112.5	1.22325195821534	-0.765945066097987	0.3	0	0	0	186.897600450087	186.997584090568	0.0999836404807866	0.300026746001095
43138	100	243	1	99	2	2	90	2	2	0	2	67.5	22.5	2.75041592864295	-0.928368990263917	0.216666666666667	0	0	0	187.214278173633	187.314257425256	0.0999792516231537	0.216694083064795
43233.75	100	244	1	100	2	2	90	2	2	0	2	67.5	22.5	0.999766665841752	-1.70929766819922	0.283333333333333	0	0	0	187.597621978493	187.697605618741	0.0999836402479559	0.283364553237334
43333.75	100	245	1	101	2	2	90	2	2	0	1	22.5	67.5	2.11892849324658	-1.25604482059823	0.3	0	0	0	187.997633583844	188.097612347919	0.0999787640757859	0.300027965102345
43425.5	100	246	1	102	2	2	90	2	2	3	1	22.5	67.5	-1.1905397939004	-1.09942316340216	0.266666666666667	0	0	0	188.364314464619	188.464303956367	0.0999894917476922	0.266702116699889
43496.25	100	247	1	103	2	2	90	2	2	3	1	22.5	157.5	2.67225590024034	0.377722318582922	0.183333333333333	0	0	0	188.647662682459	188.747640958987	0.0999782765284181	0.183358726091683
43583.75	100	248	1	104	2	2	90	2	2	3	1	112.5	67.5	-2.57548470899761	-1.30215442661087	0.25	0	0	0	188.997664059978	189.097637216561	0.0999731565825641	0.250023100990802
43658.75	100	249	1	105	2	2	90	2	2	1	-1	90	45	2.97339199676818	1.62394872604599	0.2	0	0	0	189.297678127885	189.397654941538	0.099976813653484	0.200040911324322
43708.75	100	250	1	106	2	2	90	2	2	3	2	157.5	22.5	-2.16949961611994	1.67955366554172	0.1	0	0	0	189.497678566724	189.597646359354	0.0999677926301956	0.100023625185713
43792.25	100	251	1	107	2	2	90	2	2	3	1	112.5	157.5	2.38955635061434	-3.08574423603761	0.233333333333333	0	0	0	189.831019945676	189.930991639383	0.09997169370763	0.23337358632125
43846.25	100	252	1	108	2	2	90	2	2	3	2	67.5	112.5	-2.3282750370631	-2.19436916909152	0.116666666666667	0	0	0	190.047680626856	190.14763427875	0.0999536518938839	0.116688987473026
43908.75	100	253	1	109	2	2	90	2	2	3	2	67.5	22.5	1.49015754176314	2.27449748020557	0.15	0	0	0	190.297685198253	190.397680297727	0.0999950994737446	0.150050919502974
44008.75	100	254	1	110	2	2	90	2	2	0	2	67.5	112.5	-0.0894730895029516	-0.23716162414518	0.3	0	0	0	190.697712163674	190.797676543007	0.0999643793329597	0.300031865946949
44100.5	100	255	1	111	2	2	90	2	2	0	2	67.5	112.5	0.764460235363817	-1.08096864933336	0.266666666666667	0	0	0	191.06438719295	191.164372296305	0.0999851033557206	0.266710649942979
44183.75	100	256	1	112	2	2	90	2	2	0	2	67.5	112.5	1.55838493172984	0.949339734934321	0.233333333333333	0	0	0	191.397731497651	191.497714894358	0.0999833967071027	0.233359201345593
44250.5	100	257	1	113	2	2	90	2	2	0	1	112.5	157.5	0.458842745225623	1.21726087592361	0.166666666666667	0	0	0	191.664396555396	191.764368248871	0.0999716934747994	0.166681661037728
44308.75	100	258	1	114	2	2	90	2	2	0	1	22.5	157.5	0.37426553669002	-1.2886083058937	0.133333333333333	0	0	0	191.897746979725	191.997731351526	0.0999843718018383	0.13337873085402
44363	100	259	1	115	2	2	90	2	2	0	2	67.5	112.5	0.377543584612638	2.77808082756546	0.116666666666667	0	0	0	192.114398639882	192.214381792583	0.0999831527005881	0.116667288355529
44463	100	260	1	116	2	2	90	2	2	0	2	157.5	22.5	-0.428049412695242	2.98667224412783	0.3	0	0	0	192.514429262374	192.614393641707	0.0999643793329597	0.300047469791025
44550.5	100	261	1	117	2	2	90	2	2	0	1	22.5	67.5	2.66003293236965	1.65583467832567	0.25	0	0	0	192.864439173136	192.964421350742	0.0999821776058525	0.25004553142935
44638	100	262	1	118	2	2	90	2	2	0	1	22.5	157.5	1.88714177683003	-2.40872634615576	0.25	0	0	0	193.214448108803	193.314427360659	0.0999792518559843	0.250026758061722
44696.25	100	263	1	119	2	2	90	2	2	0	2	67.5	112.5	-1.43249034928551	-2.72835540783688	0.133333333333333	0	0	0	193.447783660842	193.54777022684	0.0999865659978241	0.133356300182641
44750.5	100	264	1	120	2	2	90	2	2	0	2	157.5	22.5	-1.18537292958789	2.04527003343561	0.116666666666667	0	0	0	193.664451900171	193.764438222395	0.0999863222241402	0.116681673331186
44813	100	265	1	121	2	2	90	2	2	0	1	22.5	67.5	0.482006045501129	1.43060768547051	0.15	0	0	0	193.914467199007	194.014446207089	0.0999790080823004	0.150028976611793
44904.75	100	266	1	122	2	2	90	2	2	0	2	157.5	22.5	-1.14193549551756	-2.69581421290372	0.266666666666667	0	0	0	194.281140034087	194.381118066842	0.0999780327547342	0.266693826997653
44967.25	100	267	1	123	2	2	90	2	2	0	1	112.5	67.5	-0.799377363055795	0.523074663201164	0.15	0	0	0	194.531144605484	194.63114506891	0.100000463426113	0.150026538642123
45025.5	100	268	1	124	2	2	90	2	2	0	2	67.5	22.5	-1.16930419783817	-3.01785341507143	0.133333333333333	0	0	0	194.764450412709	194.864456971409	0.100006558699533	0.133305343799293
45117.25	100	269	1	125	2	2	90	2	2	0	1	112.5	157.5	-1.68846601928635	2.26769107994867	0.266666666666667	0	0	0	195.131145434454	195.231143703451	0.0999982689972967	0.266688463045284
45200.5	100	270	1	126	2	2	90	2	2	0	1	22.5	157.5	-1.24002203707452	2.85027875352454	0.233333333333333	0	0	0	195.464504367905	195.564470697893	0.0999663299880922	0.233360664453357
45296.25	100	271	1	127	2	2	90	2	2	0	2	157.5	22.5	2.43551538037811	-1.15186832426421	0.283333333333333	0	0	0	195.847846466117	195.947813283652	0.09996681753546	0.283375768223777
45363	100	272	1	128	2	2	90	2	2	0	2	67.5	22.5	1.16297834575656	0.18632404738507	0.166666666666667	0	0	0	196.114519325551	196.214508817531	0.0999894919805229	0.166706041898578
45442.25	100	273	1	129	2	2	90	2	2	0	2	157.5	112.5	-2.64715918583568	0.575686554587169	0.216666666666667	0	0	0	196.431205338566	196.531166304601	0.0999609660357237	0.216696521034464
45496.25	100	274	1	130	2	2	90	2	2	0	1	22.5	157.5	1.59138136818527	2.1488065723813	0.116666666666667	0	0	0	196.647848953027	196.747860143892	0.100011190865189	0.116682648425922
45575.5	100	275	1	131	2	2	90	2	2	0	2	157.5	22.5	2.17639519628209	0.469768943024203	0.216666666666667	0	0	0	196.964553007856	197.064527139766	0.0999741319101304	0.216692863963544
45671.25	100	276	1	132	2	2	90	2	2	0	1	22.5	157.5	0.0301124190768123	0.247091930493248	0.283333333333333	0	0	0	197.347871700535	197.447853634134	0.0999819335993379	0.283344560768455
45763	100	277	1	133	2	2	90	2	2	0	1	22.5	157.5	-2.78515196415836	-1.18645052691999	0.266666666666667	0	0	0	197.714572573546	197.814533295808	0.0999607222620398	0.266718939412385
45838	100	278	1	134	2	2	90	2	2	0	2	67.5	22.5	0.306458478121688	2.95281520299736	0.2	0	0	0	198.014578839531	198.114538586466	0.0999597469344735	0.200045543722808
45904.75	100	279	1	135	2	2	90	2	2	0	2	67.5	112.5	-1.58805179627434	2.46073156084402	0.166666666666667	0	0	0	198.28124731034	198.381231925916	0.0999846155755222	0.166708723874763
45988	100	280	1	136	2	2	90	2	2	0	1	112.5	157.5	-2.21122479063197	1.12788211027191	0.233333333333333	0	0	0	198.614578693174	198.71457866882	0.0999999756459147	0.233346767257899
46058.75	100	281	1	137	2	2	90	2	2	0	1	22.5	157.5	0.786897762451038	-1.36503152982535	0.183333333333333	0	0	0	198.897917646449	198.997897385852	0.0999797394033521	0.183338977629319
46150.5	100	282	1	138	2	2	90	2	2	0	1	22.5	67.5	-1.80262125235882	1.04019172263649	0.266666666666667	0	0	0	199.264582923381	199.364565588534	0.0999826651532203	0.266685537528247
46221.25	100	283	1	139	2	2	90	2	2	0	2	157.5	22.5	2.38315900188942	2.4994336135683	0.183333333333333	0	0	0	199.547929190798	199.647912831046	0.0999836402479559	0.183363602263853
46292.25	100	284	1	140	2	2	90	2	2	3	1	112.5	157.5	-2.44952968766606	-2.21007453256015	0.183333333333333	0	0	0	199.831291062059	199.93127787183	0.099986809771508	0.183378231013194
46342.25	100	285	1	141	2	2	90	2	2	3	2	157.5	22.5	-1.7828600184365	-0.0752172900710737	0.1	0	0	0	200.031298571266	200.131264413707	0.0999658424407244	0.100020699435845
46404.75	100	286	1	142	2	2	90	2	2	3	1	112.5	67.5	1.59780862464079	-2.92045027096833	0.15	0	0	0	200.281305093318	200.381285076495	0.099979983177036	0.150040679611266
46500.5	100	287	1	143	2	2	90	2	2	3	1	22.5	157.5	2.78346677191679	2.11819541333053	0.283333333333333	0	0	0	200.664651336381	200.764612302417	0.0999609660357237	0.283366259885952
47925.5	100	288	2	0	1	2	90	1	1	3	2	67.5	112.5	1.79111409807469	-0.011574242280699	0.2	0	0	0	206.364794769557	206.464776703157	0.0999819335993379	-1
48000.5	100	289	2	1	1	2	90	1	1	3	2	157.5	112.5	2.88745536180466	1.79661300158752	0.2	0	0	0	206.664819321129	206.764789795736	0.0999704746063799	0.20004261797294
48075.5	100	290	2	2	1	2	90	1	1	3	1	22.5	67.5	1.33105731720327	-1.30442532953413	0.2	0	0	0	206.964816078544	207.064797768369	0.099981689825654	0.200026282807812
48150.5	100	291	2	3	1	2	90	1	1	3	1	112.5	67.5	1.35948812053759	-1.09876134420603	0.2	0	0	0	207.264818687225	207.364771120017	0.0999524327926338	0.200020918855444
48225.5	100	292	2	4	1	2	90	1	1	0	1	112.5	67.5	-2.03455625921313	-2.19446386838531	0.2	0	0	0	207.564826172311	207.664793721167	0.0999675488565117	0.200055052293465
48300.5	100	293	2	5	1	2	90	1	1	0	1	112.5	67.5	0.480155384197336	-2.31345882515364	0.2	0	0	0	207.864820491523	207.964819735615	0.0999992440920323	0.20002677035518
48375.5	100	294	2	6	1	2	90	1	1	0	2	67.5	22.5	0.950490271817507	-2.59120340698366	0.2	0	0	0	208.164849187713	208.264827220468	0.0999780327547342	0.200029452098534
48450.5	100	295	2	7	1	2	90	1	1	0	2	67.5	22.5	-1.6566262224817	-3.04616296538547	0.2	0	0	0	208.46482180804	208.564834949328	0.100013141287491	0.199994587572291
48525.5	100	296	2	8	1	2	90	1	1	0	1	112.5	67.5	2.66448919945052	1.05311545089584	0.2	0	0	0	208.764860500582	208.864843165735	0.0999826651532203	0.20002555125393
48600.5	100	297	2	9	1	2	90	1	1	0	1	22.5	67.5	0.0103254948512457	1.71583675229459	0.2	0	0	0	209.06485165027	209.164831145899	0.0999794956296682	0.200008484534919
48675.5	100	298	2	10	1	2	90	1	1	0	2	157.5	112.5	-2.50251217420898	-2.4770880173681	0.2	0	0	0	209.364863523748	209.464859354775	0.099995831027627	0.200032377848402
48750.5	100	299	2	11	1	2	90	1	1	0	2	157.5	22.5	-0.704763480297074	2.03922186477956	0.2	0	0	0	209.664888806874	209.764855380636	0.0999665737617761	0.200029452098534
48825.5	100	300	2	12	1	2	90	1	1	0	1	112.5	67.5	2.99962916513961	-0.452204394139237	0.2	0	0	0	209.964890928008	210.064862134168	0.0999712061602622	0.200035547371954
48900.5	100	301	2	13	1	2	90	1	1	0	2	157.5	22.5	-0.0523002608623879	2.78982576722132	0.2	0	0	0	210.264890854945	210.364888879936	0.0999980249907821	0.200028720777482
48975.5	100	302	2	14	1	2	90	1	1	0	2	67.5	112.5	-0.116840985450192	-2.48392552455361	0.2	0	0	0	210.564898339799	210.664886856452	0.0999885166529566	0.200009459862486
49050.5	100	303	2	15	1	2	90	1	1	0	2	67.5	22.5	-1.90900173071034	-1.53797980470317	0.2	0	0	0	210.864920209628	210.964887758484	0.0999675488565117	0.200033353175968
49125.5	100	304	2	16	1	2	90	1	1	0	2	67.5	22.5	1.8550930481949	-0.143545306019347	0.2	0	0	0	211.164933302207	211.264899631962	0.0999663297552615	0.200045543722808
49200.5	100	305	2	17	1	2	90	1	1	0	1	112.5	157.5	-0.663663290416023	-0.877772542423809	0.2	0	0	0	211.46495249006	211.564918819815	0.0999663297552615	0.200052858097479
49275.5	100	306	2	18	1	2	90	1	1	0	1	112.5	67.5	1.34257625090668	-1.80226960153731	0.2	0	0	0	211.764930473873	211.864908750402	0.0999782765284181	0.200011654058471
49350.5	100	307	2	19	1	2	90	1	1	0	1	22.5	157.5	-0.142329400694192	0.511159616362077	0.2	0	0	0	212.064955513226	212.164938178379	0.0999826651532203	0.200046762824059
49425.5	100	308	2	20	1	2	90	1	1	0	2	157.5	112.5	-2.38609562968689	2.18449810448447	0.2	0	0	0	212.364953977289	212.464939080412	0.09998510312289	0.20001579890959
49500.5	100	309	2	21	1	2	90	1	1	0	1	112.5	67.5	0.369695656908551	-0.756070545756221	0.2	0	0	0	212.664955366869	212.76492730435	0.0999719374813139	0.200016286456957
49575.5	100	310	2	22	1	2	90	1	1	0	2	157.5	22.5	2.17888009559539	1.30694568977688	0.2	0	0	0	212.964982600417	213.064958926523	0.0999763261061162	0.200055296067148
49650.5	100	311	2	23	1	2	90	1	1	0	1	22.5	67.5	-2.56075896574675	-2.07731953606518	0.2	0	0	0	213.264987647301	213.36495227064	0.0999646233394742	0.200028720777482
49725.5	100	312	2	24	1	2	90	1	1	0	1	22.5	67.5	-2.11224497605563	-1.06199644683474	0.2	0	0	0	213.564996351255	213.664988281205	0.0999919299501926	0.200044080615044
49800.5	100	313	2	25	1	2	90	1	1	0	1	112.5	157.5	-1.74566864014294	-2.32083760657807	0.2	0	0	0	213.865007980959	213.964985038619	0.0999770576599985	0.200019699754193
49875.5	100	314	2	26	1	2	90	1	1	0	2	157.5	112.5	0.710843090747121	-2.31157313317889	0.2	0	0	0	214.165015466046	214.264996180544	0.0999807144980878	0.2000304274261
49950.5	100	315	2	27	1	2	90	1	1	0	2	157.5	22.5	0.065891107064413	-2.08240673456883	0.2	0	0	0	214.46502660797	214.565002202755	0.0999755947850645	0.2000304274261
50025.5	100	316	2	28	1	2	90	1	1	0	2	67.5	22.5	-2.50352537703359	2.42565922385457	0.2	0	0	0	214.765050671995	214.864999447716	0.0999487757217139	0.200048469239846
50100.5	100	317	2	29	1	2	90	1	1	0	1	22.5	67.5	-2.76744153922872	2.80139293470888	0.2	0	0	0	215.065035482636	215.165024486836	0.0999890042003244	0.200036034919322
50175.5	100	318	2	30	1	2	90	1	1	0	2	157.5	22.5	1.40882544518955	1.19814023534491	0.2	0	0	0	215.36504467437	215.465025876649	0.0999812022782862	0.200020187534392
50250.5	100	319	2	31	1	2	90	1	1	0	2	67.5	112.5	-0.288594797671622	2.56161742363872	0.2	0	0	0	215.665059961146	215.765041163424	0.0999812022782862	0.20003408449702
50325.5	100	320	2	32	1	2	90	1	1	0	2	157.5	22.5	-0.236268863561493	-0.290388817521662	0.2	0	0	0	215.965061838506	216.065044991439	0.0999831529334188	0.20002067508176
50400.5	100	321	2	33	1	2	90	1	1	0	2	67.5	112.5	-1.42950800341847	-2.08898660469595	0.2	0	0	0	216.265066885389	216.365051257191	0.0999843718018383	0.200021893950179
50475.5	100	322	2	34	1	2	90	1	1	3	1	112.5	67.5	-1.54973485693319	1.93478997734098	0.2	0	0	0	216.565080465516	216.665063374676	0.0999829091597348	0.20002920832485
50550.5	100	323	2	35	1	2	90	1	1	3	2	157.5	112.5	-2.338510575057	2.6303203093759	0.2	0	0	0	216.86508307443	216.965077686124	0.0999946116935462	0.200019699754193
50625.5	100	324	2	36	1	2	90	1	1	3	2	157.5	22.5	1.91655338028106	-2.31239060921731	0.2	0	0	0	217.165092753712	217.265075174859	0.0999824211467057	0.200015067588538
50700.5	100	325	2	37	1	2	90	1	1	1	-1	90	45	-0.0425173217366308	0.64066577838863	0.2	0	0	0	217.465089998674	217.565082416171	0.0999924174975604	0.200014823814854
50775.5	100	326	2	38	1	2	90	1	1	3	1	22.5	157.5	3.11796511820374	0.975742114709436	0.2	0	0	0	217.765110161621	217.865092095453	0.0999819338321686	0.200027745449916
50850.5	100	327	2	39	1	2	90	1	1	3	2	67.5	112.5	1.12267873406704	-2.71981361549561	0.2	0	0	0	218.065115452278	218.165102993604	0.0999875413253903	0.200023356825113
50925.75	100	328	2	40	1	2	90	1	1	3	1	22.5	67.5	2.46780987723623	-1.69797666627091	0.2	0	0	0	218.365123424912	218.465105846291	0.0999824213795364	0.200020431308076
51000.75	100	329	2	41	1	2	90	1	1	3	2	67.5	22.5	-1.71518272194046	-2.75871018631286	0.2	0	0	0	218.665118231671	218.765100409277	0.0999821776058525	0.200012385379523
51075.75	100	330	2	42	1	2	90	1	1	0	1	22.5	67.5	-0.261116785279411	0.579028621005089	0.2	0	0	0	218.965141320601	219.065123741748	0.0999824211467057	0.200040911324322
51150.75	100	331	2	43	1	2	90	1	1	0	1	22.5	157.5	-2.89450293985953	2.31658440075861	0.2	0	0	0	219.265134420712	219.365130007733	0.0999955870211124	0.200010678963736
51225.75	100	332	2	44	1	2	90	1	1	0	1	112.5	157.5	1.33986527998531	-2.92115060835744	0.2	0	0	0	219.565130202798	219.665130665991	0.100000463193282	0.200000195065513
51300.75	100	333	2	45	1	2	90	1	1	0	1	22.5	157.5	2.96937005039621	0.493357621479202	0.2	0	0	0	219.86516304384	219.965156192891	0.0999931490514427	0.200032377848402
51375.75	100	334	2	46	1	2	90	1	1	0	1	22.5	67.5	-0.906496106758369	-0.0658604522964286	0.2	0	0	0	220.165176136419	220.265140515985	0.0999643795657903	0.200019943527877
51450.75	100	335	2	47	1	2	90	1	1	0	1	112.5	157.5	-0.435942141351839	-3.07330338243571	0.2	0	0	0	220.465184840607	220.565166286658	0.0999814460519701	0.200044324621558
51525.75	100	336	2	48	1	2	90	1	1	0	2	67.5	112.5	-1.55183148755812	1.0075424431561	0.2	0	0	0	220.765189155936	220.865174015285	0.0999848593492061	0.200022869277745
51600.75	100	337	2	49	1	2	90	1	1	0	2	157.5	112.5	1.52108003208839	1.26709727471735	0.2	0	0	0	221.065197372343	221.165180525044	0.0999831527005881	0.200023357057944
51675.75	100	338	2	50	1	2	90	1	1	0	2	67.5	112.5	1.25602568276995	-2.99497901856901	0.2	0	0	0	221.365204613423	221.465165579459	0.0999609660357237	0.200024088378996
51750.75	100	339	2	51	1	2	90	1	1	0	1	22.5	157.5	2.16832286352827	0.827044699877567	0.2	0	0	0	221.665218193782	221.765171114122	0.0999529203400016	0.200052614323795
51825.75	100	340	2	52	1	2	90	1	1	0	1	22.5	157.5	2.81830381906769	-1.65073963285418	0.2	0	0	0	221.96522299666	222.065176892327	0.0999538956675678	0.200051882537082
51900.75	100	341	2	53	1	2	90	1	1	0	1	112.5	157.5	0.170919218175632	0.0794577097660776	0.2	0	0	0	222.265222923597	222.365222167689	0.0999992440920323	0.200046031270176
51975.75	100	342	2	54	1	2	90	1	1	0	2	157.5	22.5	1.7676530606975	2.87823731706666	0.2	0	0	0	222.56522967713	222.66522160708	0.0999919299501926	0.200007509440184
52050.75	100	343	2	55	1	2	90	1	1	0	2	67.5	112.5	2.83449159174435	0.405129602852281	0.2	0	0	0	222.865238624858	222.965219827136	0.0999812022782862	0.200017017778009
52125.75	100	344	2	56	1	2	90	1	1	0	2	67.5	112.5	2.99209646317549	2.2350338543267	0.2	0	0	0	223.165244647069	223.265228775097	0.0999841280281544	0.200024819932878
52200.75	100	345	2	57	1	2	90	1	1	0	1	22.5	157.5	0.380032312543904	1.5643606834993	0.2	0	0	0	223.46524189203	223.565244305646	0.100002413615584	0.200013116933405
52275.75	100	346	2	58	1	2	90	1	1	0	2	67.5	22.5	-1.81495909448317	-2.56102187261508	0.2	0	0	0	223.765271563549	223.865236430662	0.0999648671131581	0.200027257902548
52350.75	100	347	2	59	1	2	90	1	1	0	1	112.5	157.5	-1.05970305112885	1.33930719524596	0.2	0	0	0	224.06528051151	224.165265614633	0.09998510312289	0.200044080847874
52425.75	100	348	2	60	1	2	90	1	1	0	1	22.5	67.5	-0.322934986293065	-1.74902142729905	0.2	0	0	0	224.365282876417	224.465260909172	0.0999780327547342	0.200017261784524
52500.75	100	349	2	61	1	2	90	1	1	0	1	22.5	67.5	1.79992945451664	-3.00632102385104	0.2	0	0	0	224.665291092824	224.76525449683	0.0999634040053934	0.200030183652416
52575.75	100	350	2	62	1	2	90	1	1	0	1	112.5	67.5	-2.90249689939721	-2.85778190657052	0.2	0	0	0	224.965302234748	225.065269052284	0.09996681753546	0.200047737918794
52650.75	100	351	2	63	1	2	90	1	1	0	1	22.5	157.5	2.60710463061435	-1.75395045726066	0.2	0	0	0	225.265313620679	225.365292872535	0.0999792518559843	0.200044568395242
52725.75	100	352	2	64	1	2	90	1	1	0	1	22.5	67.5	2.90820758329121	3.12529113617454	0.2	0	0	0	225.56531964289	225.665307184216	0.0999875413253903	0.20002677035518
52800.75	100	353	2	65	1	2	90	1	1	0	1	112.5	157.5	2.72262420783732	-2.97980540748743	0.2	0	0	0	225.865331272595	225.965309061576	0.0999777889810503	0.200024088378996
52875.75	100	354	2	66	1	2	90	1	1	0	1	22.5	157.5	-0.578069681628717	0.53547682258483	0.2	0	0	0	226.165338513674	226.265317033976	0.099978520302102	0.200029452098534
52950.75	100	355	2	67	1	2	90	1	1	0	2	67.5	112.5	2.13662245326071	-1.83455589986073	0.2	0	0	0	226.465349412058	226.565329151461	0.0999797394033521	0.200032378081232
53025.75	100	356	2	68	1	2	90	1	1	0	2	67.5	112.5	3.02387615230991	-1.00977176814837	0.2	0	0	0	226.765351289418	226.865331272595	0.099979983177036	0.200022137956694
53100.75	100	357	2	69	1	2	90	1	1	0	2	157.5	112.5	1.34358518138963	0.228986067585633	0.2	0	0	0	227.065367307747	227.165344852721	0.0999775449745357	0.200036035152152
53175.75	100	358	2	70	1	2	90	1	1	0	2	157.5	22.5	1.11653036560506	-1.91255876720421	0.2	0	0	0	227.365367966006	227.465351850027	0.0999838840216398	0.20002311328426
53250.75	100	359	2	71	1	2	90	1	1	0	2	67.5	112.5	-2.56419722437743	1.26597802790932	0.2	0	0	0	227.665361797437	227.765337148448	0.0999753510113806	0.200009947409853
53325.75	100	360	2	72	1	2	90	1	1	0	2	157.5	112.5	2.56883859202498	3.06527487490679	0.2	0	0	0	227.965370501624	228.065343901981	0.099973400356248	0.200033353175968
53400.75	100	361	2	73	1	2	90	1	1	0	2	157.5	112.5	0.232974674365016	2.71163437452108	0.2	0	0	0	228.265392858768	228.36538015632	0.0999872975517064	0.200048956787214
53475.75	100	362	2	74	1	2	90	1	1	0	1	22.5	157.5	2.69858228358517	-2.57763199841606	0.2	0	0	0	228.565376694314	228.665384471882	0.100007777567953	0.199996537994593
53550.75	100	363	2	75	1	2	90	1	1	0	1	112.5	67.5	1.1664787003589	0.988208378189612	0.2	0	0	0	228.865411486011	228.965395126259	0.0999836402479559	0.200027014128864
53625.75	100	364	2	76	1	2	90	1	1	0	2	157.5	22.5	1.83928677238029	-2.39009122440032	0.2	0	0	0	229.165426529013	229.265382375102	0.0999558460898697	0.200031402753666
53700.75	100	365	2	77	1	2	90	1	1	0	1	112.5	67.5	1.95036990986601	1.22101990496545	0.2	0	0	0	229.465424993075	229.565393273253	0.0999682801775634	0.20004261797294
53775.75	100	366	2	78	1	2	90	1	1	0	2	157.5	112.5	1.63107154747309	-2.60990797301577	0.2	0	0	0	229.765416386537	229.865398320137	0.0999819335993379	0.20002311328426
53850.75	100	367	2	79	1	2	90	1	1	0	2	67.5	22.5	0.756714513742237	-1.65930503281559	0.2	0	0	0	230.065425090492	230.165425797459	0.100000706966966	0.20002677035518
53925.75	100	368	2	80	1	2	90	1	1	0	2	67.5	22.5	-0.958648777254084	-2.75878942609195	0.2	0	0	0	230.365447935415	230.46543474542	0.0999868100043386	0.200022137956694
54000.75	100	369	2	81	1	2	90	1	1	0	2	67.5	112.5	0.436351786260474	2.90271308276706	0.2	0	0	0	230.665447130799	230.765416874085	0.0999697432853281	0.200012385379523
54075.75	100	370	2	82	1	2	90	1	1	0	2	157.5	112.5	1.08359496135894	2.81289457046565	0.2	0	0	0	230.965468025301	231.065447277157	0.0999792518559843	0.20005115121603
54150.75	100	371	2	83	1	2	90	1	1	0	2	157.5	112.5	0.484339447853128	1.8836637794329	0.2	0	0	0	231.26547575416	231.365459638415	0.0999838842544705	0.200028477003798
54225.75	100	372	2	84	1	2	90	1	1	3	1	22.5	157.5	2.74238112784328	-0.401748836333688	0.2	0	0	0	231.565468610497	231.66546907369	0.100000463193282	0.200008972082287
54300.75	100	373	2	85	1	2	90	1	1	3	2	67.5	112.5	-0.796176424692532	0.190139648317799	0.2	0	0	0	231.865489504999	231.965471194824	0.099981689825654	0.200020431308076
54375.75	100	374	2	86	1	2	90	1	1	3	1	22.5	67.5	1.88440746759457	0.619755634673381	0.2	0	0	0	232.165495283203	232.265460150316	0.0999648671131581	0.200024088378996
54450.75	100	375	2	87	1	2	90	1	1	2	-1	45	90	-0.402475005666861	1.47979329122198	0.2	0	0	0	232.465505937813	232.565453981981	0.0999480441678315	0.200045787496492
54525.75	100	376	2	88	1	2	90	1	1	3	2	157.5	22.5	-2.54533474290273	-1.73205742717183	0.2	0	0	0	232.765494893305	232.865492186975	0.0999972936697304	0.200040911324322
54600.75	100	377	2	89	1	2	90	1	1	3	2	157.5	112.5	0.996874642760622	1.49337147868712	0.2	0	0	0	233.065501159057	233.165499915602	0.0999987565446645	0.200008972082287
54675.75	100	378	2	90	1	2	90	1	1	3	1	112.5	157.5	0.164944051636844	2.27093606543143	0.2	0	0	0	233.365527173504	233.465508132009	0.0999809585046023	0.200027257902548
54750.75	100	379	2	91	1	2	90	1	1	3	1	112.5	67.5	-0.736383294367967	2.11079758344704	0.2	0	0	0	233.665531976614	233.765499281697	0.0999673050828278	0.200023844605312
54825.75	100	380	2	92	1	2	90	1	1	0	1	112.5	67.5	2.1812272627644	1.21264606635106	0.2	0	0	0	233.965540680569	234.06550725433	0.0999665737617761	0.20004139887169
54900.75	100	381	2	93	1	2	90	1	1	0	2	67.5	112.5	-2.17072472855849	0.276428914179988	0.2	0	0	0	234.265548409428	234.365514739417	0.0999663299880922	0.200041155098006
54975.75	100	382	2	94	1	2	90	1	1	0	2	157.5	22.5	1.2396512233314	-1.46079186709135	0.2	0	0	0	234.565564915305	234.665551481303	0.0999865659978241	0.200050175888464
55050.75	100	383	2	95	1	2	90	1	1	0	1	112.5	157.5	-1.71767582819962	2.29816893315976	0.2	0	0	0	234.865573375486	234.965558478842	0.0999851033557206	0.20002189418301
55125.75	100	384	2	96	1	2	90	1	1	0	1	22.5	67.5	-1.30544370673126	-0.450485035015883	0.2	0	0	0	235.165582323447	235.26556157507	0.0999792516231537	0.200023844605312
55200.75	100	385	2	97	1	2	90	1	1	0	1	112.5	157.5	1.78701616968997	-2.76713604319433	0.2	0	0	0	235.465582250152	235.565561745781	0.0999794956296682	0.20002067508176
55275.75	100	386	2	98	1	2	90	1	1	0	1	112.5	157.5	-2.12119716443901	1.20337235075377	0.2	0	0	0	235.765568279894	235.86556289182	0.0999946119263768	0.200006534112617
55350.75	100	387	2	99	1	2	90	1	1	0	2	67.5	22.5	-0.452680800656378	2.43596109391479	0.2	0	0	0	236.065602340037	236.16558793094	0.0999855909030885	0.200039448216558
55425.75	100	388	2	100	1	2	90	1	1	0	1	112.5	157.5	2.91955011314117	1.71936226532052	0.2	0	0	0	236.365624697413	236.465573716909	0.0999490194953978	0.200036766473204
55500.75	100	389	2	101	1	2	90	1	1	0	2	67.5	112.5	1.46098601461041	1.97747232649031	0.2	0	0	0	236.665622917702	236.765584371286	0.0999614535830915	0.200049200793728
55575.75	100	390	2	102	1	2	90	1	1	0	2	67.5	22.5	-2.96860103198841	0.264933810556793	0.2	0	0	0	236.96562820836	237.065609654412	0.0999814460519701	0.20004383707419
55650.75	100	391	2	103	1	2	90	1	1	0	1	22.5	157.5	-0.858503665666774	2.09829643807975	0.2	0	0	0	237.265638618963	237.365617139265	0.099978520302102	0.200028964551166
55725.75	100	392	2	104	1	2	90	1	1	0	2	157.5	112.5	1.61178667846401	-0.983002708147415	0.2	0	0	0	237.565643178299	237.665632670047	0.0999894917476922	0.200026039034128
55800.75	100	393	2	105	1	2	90	1	1	0	1	112.5	67.5	2.66520932848345	2.94743195390583	0.2	0	0	0	237.8656511507	237.965631621657	0.0999804709572345	0.200018480652943
55875.75	100	394	2	106	1	2	90	1	1	0	1	112.5	157.5	-2.21096604728545	2.38512408722565	0.2	0	0	0	238.165641325293	238.265624477994	0.0999831527005881	0.200009703636169
55950.75	100	395	2	107	1	2	90	1	1	0	2	67.5	22.5	3.10039229775789	2.16077242216754	0.2	0	0	0	238.465675141662	238.565650980221	0.0999758385587484	0.200050663668662
56025.75	100	396	2	108	1	2	90	1	1	0	1	22.5	67.5	2.93536032831673	0.415632290580752	0.2	0	0	0	238.765675312374	238.865660415497	0.09998510312289	0.20002433215268
56100.75	100	397	2	109	1	2	90	1	1	0	2	157.5	112.5	2.60837433464308	-1.91609660226278	0.2	0	0	0	239.065677433508	239.165664487286	0.0999870537780225	0.20001701801084
56175.75	100	398	2	110	1	2	90	1	1	0	1	112.5	67.5	-2.54174090269977	-0.597391487832678	0.2	0	0	0	239.365684674587	239.465643202653	0.099958528066054	0.200020187301561
56250.75	100	399	2	111	1	2	90	1	1	0	2	157.5	112.5	-2.77623966519223	-1.83475000426241	0.2	0	0	0	239.665672410978	239.765680188546	0.100007777567953	0.20002920832485
56325.75	100	400	2	112	1	2	90	1	1	0	1	22.5	157.5	1.51852457482333	-3.00442269688679	0.2	0	0	0	239.965680139838	240.065652077319	0.0999719374813139	0.199999951291829
56400.75	100	401	2	113	1	2	90	1	1	0	1	22.5	67.5	-2.57241322865598	-0.599358492188185	0.2	0	0	0	240.265712249558	240.365694183158	0.0999819335993379	0.200060172239318
56475.75	100	402	2	114	1	2	90	1	1	0	1	112.5	67.5	-2.5306604199199	2.39894614509357	0.2	0	0	0	240.565719003091	240.665698742494	0.0999797394033521	0.200024819932878
56550.75	100	403	2	115	1	2	90	1	1	0	2	157.5	22.5	2.50905649483128	2.70622775293411	0.2	0	0	0	240.865729413694	240.965715492144	0.0999860784504563	0.200030671199784
56625.75	100	404	2	116	1	2	90	1	1	0	2	157.5	22.5	-2.06941490731608	2.59267610332318	0.2	0	0	0	241.165732997702	241.265712249558	0.0999792518559843	0.200017505558208
56700.75	100	405	2	117	1	2	90	1	1	0	1	22.5	157.5	-0.341129544688139	-1.83148559547805	0.2	0	0	0	241.465745114954	241.565722416388	0.0999773014336824	0.200032865395769
56775.75	100	406	2	118	1	2	90	1	1	0	1	112.5	157.5	1.72002008870669	0.916564045785501	0.2	0	0	0	241.76575211226	241.865729657467	0.0999775452073663	0.200029695872217
56850.75	100	407	2	119	1	2	90	1	1	0	2	67.5	22.5	-0.694911191977963	2.6007385933333	0.2	0	0	0	242.065758378245	242.165729340632	0.0999709623865783	0.200028720777482
56925.75	100	408	2	120	1	2	90	1	1	0	2	67.5	22.5	2.1514595539029	-1.04844080704726	0.2	0	0	0	242.365767082199	242.465757305501	0.0999902233015746	0.20003774156794
57000.75	100	409	2	121	1	2	90	1	1	0	1	22.5	67.5	-1.02096967517272	-1.87033647187863	0.2	0	0	0	242.665790658677	242.765761620831	0.0999709621537477	0.200033353175968
57075.75	100	410	2	122	1	2	90	1	1	0	2	157.5	22.5	-1.10529587307576	-1.3237389367969	0.2	0	0	0	242.965771080693	243.065770081012	0.0999990003183484	0.200009459862486
57150.75	100	411	2	123	1	2	90	1	1	0	1	22.5	157.5	-1.77118503523631	1.93197138315842	0.2	0	0	0	243.265799289569	243.365781710949	0.0999824213795364	0.20002920855768
57225.75	100	412	2	124	1	2	90	1	1	3	1	22.5	157.5	-0.0154795909847496	2.87829160119889	0.2	0	0	0	243.565802873578	243.665772129083	0.0999692555051297	0.200021162629128
57300.75	100	413	2	125	1	2	90	1	1	3	1	112.5	157.5	-1.30273244509771	-1.65178311475182	0.2	0	0	0	243.86581206508	243.965797899757	0.0999858346767724	0.200039935996756
57375.75	100	414	2	126	1	2	90	1	1	3	2	157.5	22.5	-0.198315023103976	-0.693681120629645	0.2	0	0	0	244.165824182564	244.265803434188	0.0999792516231537	0.200026282807812
57450.75	100	415	2	127	1	2	90	1	1	3	2	67.5	22.5	0.299134545238981	2.77813906328266	0.2	0	0	0	244.465830448316	244.565817502094	0.0999870537780225	0.200027014128864
58446.75	100	416	3	0	1	2	0	2	1	3	1	112.5	157.5	0.377710318213038	3.03120258690331	0.2	0	0	0	248.449262122391	248.549250638811	0.099988516420126	-1
58521.75	100	417	3	1	1	2	0	2	1	3	1	112.5	67.5	2.46056395864401	1.51271442023019	0.2	0	0	0	248.749293256784	248.84922520956	0.0999319527763873	0.20004261797294
58596.75	100	418	3	2	1	2	0	2	1	3	2	67.5	22.5	-1.06921740544813	0.654860608180527	0.2	0	0	0	249.04925344279	249.149265852524	0.100012409733608	0.200028233230114
58671.75	100	419	3	3	1	2	0	2	1	3	1	22.5	157.5	-1.74451412759084	-2.40153022002849	0.2	0	0	0	249.349292135332	249.449272606056	0.0999804707244039	0.200026282807812
58746.75	100	420	3	4	1	2	0	2	1	0	1	22.5	157.5	1.45060427273208	-0.0885716488749333	0.2	0	0	0	249.64928621077	249.749280091142	0.0999938803724945	0.200013604713604
58821.75	100	421	3	5	1	2	0	2	1	0	1	112.5	157.5	-3.03311071463319	-0.958791311137914	0.2	0	0	0	249.949307592819	250.049288795097	0.0999812022782862	0.200027501676232
58896.75	100	422	3	6	1	2	0	2	1	0	1	112.5	157.5	1.23937790148146	-2.19491830133375	0.2	0	0	0	250.249313614797	250.349298230605	0.0999846158083528	0.200024819700047
58971.75	100	423	3	7	1	2	0	2	1	0	2	157.5	112.5	2.21325777594674	-1.83421751110542	0.2	0	0	0	250.549326219829	250.649311079178	0.0999848593492061	0.200027989223599
59046.75	100	424	3	8	1	2	0	2	1	0	1	112.5	157.5	-1.90514385380564	0.290405916556287	0.2	0	0	0	250.849335411564	250.949318808038	0.099983396474272	0.20002433238551
59121.75	100	425	3	9	1	2	0	2	1	0	1	22.5	157.5	3.03188090596426	-1.09677637769422	0.2	0	0	0	251.149348260136	251.249329706421	0.0999814462848008	0.200029452098534
59196.75	100	426	3	10	1	2	0	2	1	0	2	67.5	112.5	-0.455239496116961	2.57619387922207	0.2	0	0	0	251.449351112824	251.549332071329	0.0999809585046023	0.200021406402811
59271.75	100	427	3	11	1	2	0	2	1	0	1	112.5	67.5	2.07625378567093	-0.920422020252415	0.2	0	0	0	251.74935518438	251.849343457259	0.0999882728792727	0.200023113051429
59346.75	100	428	3	12	1	2	0	2	1	0	2	67.5	112.5	-0.644753069600205	0.236223825160786	0.2	0	0	0	252.049333168427	252.149315346032	0.0999821776058525	0.199989711167291
59421.75	100	429	3	13	1	2	0	2	1	0	1	22.5	67.5	2.78702135215659	-3.05643983530065	0.2	0	0	0	252.349368935218	252.449358914746	0.0999899795278907	0.2000535891857
59496.75	100	430	3	14	1	2	0	2	1	0	1	22.5	157.5	-2.79349232800578	0.39923973993392	0.2	0	0	0	252.649385928875	252.749372982653	0.0999870537780225	0.200027014128864
59571.75	100	431	3	15	1	2	0	2	1	0	1	112.5	67.5	-2.56276343620545	-1.25097189981083	0.2	0	0	0	252.949397314806	253.049373884685	0.0999765698798001	0.20002433215268
59646.75	100	432	3	16	1	2	0	2	1	0	1	22.5	67.5	-0.630255439653614	-1.55708349772591	0.2	0	0	0	253.249399435939	253.349369422998	0.0999699870590121	0.20002555125393
59721.75	100	433	3	17	1	2	0	2	1	3	1	22.5	157.5	1.68718496937099	-2.22596487751995	0.2	0	0	0	253.549393267604	253.649369837483	0.0999765698798001	0.200023844605312
59796.75	100	434	3	18	1	2	0	2	1	3	2	67.5	112.5	-1.79422742269873	2.25825666234304	0.2	0	0	0	253.849416600075	253.949399996549	0.099983396474272	0.200046762591228
59871.75	100	435	3	19	1	2	0	2	1	3	2	157.5	112.5	-0.74560208976092	1.65145681544467	0.2	0	0	0	254.149424084928	254.249455268262	0.100031183334067	0.200024088378996
59946.75	100	436	3	20	1	2	0	2	1	1	-1	0	45	1.18256254301428	1.95582993346418	0.2	0	0	0	254.449430350913	254.549408871215	0.099978520302102	0.199975082650781
60021.75	100	437	3	21	1	2	0	2	1	3	1	22.5	67.5	-2.66574078743766	1.72421981844824	0.2	0	0	0	254.749441980617	254.849414649652	0.0999726690351963	0.200033109402284
60096.75	100	438	3	22	1	2	0	2	1	3	1	112.5	67.5	-1.01620498765677	-1.794863723053	0.2	0	0	0	255.04944044468	255.149424084928	0.0999836402479559	0.200025795027614
60171.75	100	439	3	23	1	2	0	2	1	3	1	112.5	157.5	2.39399982741884	0.704293250672734	0.2	0	0	0	255.349447198212	255.449431082467	0.0999838842544705	0.20002311328426
60246.75	100	440	3	24	1	2	0	2	1	3	2	157.5	22.5	-0.889878082000337	-2.97313219281648	0.2	0	0	0	255.649456877494	255.749439298874	0.0999824213795364	0.200025795027614
60321.75	100	441	3	25	1	2	0	2	1	0	2	67.5	112.5	-2.82021883787947	2.79600482365872	0.2	0	0	0	255.94946680055	256.049447271274	0.0999804707244039	0.200027501676232
60396.75	100	442	3	26	1	2	0	2	1	0	1	112.5	67.5	2.66012845155582	2.10172364424243	0.2	0	0	0	256.249472578755	256.349455731455	0.0999831527005881	0.200025307480246
60471.75	100	443	3	27	1	2	0	2	1	0	1	112.5	67.5	2.83567710487525	0.525096659994077	0.2	0	0	0	256.549477869412	256.649468092714	0.0999902233015746	0.200022137956694
60546.75	100	444	3	28	1	2	0	2	1	0	2	67.5	22.5	-2.44372394508202	-2.80698562842397	0.2	0	0	0	256.849487548694	256.949474602472	0.0999870537780225	0.20001945598051
60621.75	100	445	3	29	1	2	0	2	1	0	1	112.5	67.5	2.88548099788364	0.278040638346153	0.2	0	0	0	257.149468214484	257.249470140785	0.100001926301047	0.199993612011895
60696.75	100	446	3	30	1	2	0	2	1	0	1	22.5	157.5	-0.867262320296653	-1.11965077254839	0.2	0	0	0	257.449509345228	257.549496399006	0.0999870537780225	0.200039204442874
60771.75	100	447	3	31	1	2	0	2	1	0	2	67.5	112.5	-3.12885049262623	-2.08983737685109	0.2	0	0	0	257.74951609876	257.849483160069	0.0999670613091439	0.200019699754193
60846.75	100	448	3	32	1	2	0	2	1	0	1	112.5	157.5	1.18717378983979	-0.673171068794483	0.2	0	0	0	258.049525046488	258.149498203071	0.0999731565825641	0.200041886419058
60921.75	100	449	3	33	1	2	0	2	1	0	1	112.5	157.5	1.37909986131817	0.361361005351458	0.2	0	0	0	258.349533019122	258.449485939462	0.0999529203400016	0.200034816050902
60996.75	100	450	3	34	1	2	0	2	1	0	2	157.5	112.5	2.01108301439121	0.0329389069282451	0.2	0	0	0	258.649547087029	258.749535847455	0.0999887604266405	0.200061147566885
61071.75	100	451	3	35	1	2	0	2	1	0	2	67.5	112.5	-1.41224534766428	-0.506816849085425	0.2	0	0	0	258.949558960507	259.049537968589	0.0999790080823004	0.200023113051429
61146.75	100	452	3	36	1	2	0	2	1	0	2	157.5	112.5	-1.81981373761605	-1.48746825416825	0.2	0	0	0	259.249568152241	259.349528386723	0.0999602344818413	0.200030183652416
61221.75	100	453	3	37	1	2	0	2	1	0	1	112.5	67.5	-1.06067940497611	0.158481826773303	0.2	0	0	0	259.549569298048	259.649522949941	0.0999536518938839	0.200040911324322
61296.75	100	454	3	38	1	2	0	2	1	0	1	112.5	157.5	1.69756520143013	-1.87586565578497	0.2	0	0	0	259.849578002002	259.949560910929	0.0999829089269042	0.200055052060634
61371.75	100	455	3	39	1	2	0	2	1	0	1	112.5	67.5	2.8397420340158	-2.76789134184995	0.2	0	0	0	260.149585243082	260.24956937111	0.0999841280281544	0.20002433215268
61446.75	100	456	3	40	1	2	0	2	1	0	2	157.5	112.5	-2.30201691713242	-2.40554977964355	0.2	0	0	0	260.449577611871	260.549562227679	0.0999846158083528	0.200008240761235
61521.75	100	457	3	41	1	2	0	2	1	0	2	67.5	22.5	-0.0870475376087629	2.72605830383386	0.2	0	0	0	260.749600944575	260.849564104807	0.0999631602317095	0.200038716895506
61596.75	100	458	3	42	1	2	0	2	1	0	1	112.5	67.5	-1.63070156060892	-0.129458419240819	0.2	0	0	0	261.049587705638	261.149578904035	0.0999911983963102	0.200023600831628
61671.75	100	459	3	43	1	2	0	2	1	0	1	112.5	67.5	-0.715367194933036	-0.64910359336327	0.2	0	0	0	261.349589339225	261.449578343425	0.0999890042003244	0.200010435190052
61746.75	100	460	3	44	1	2	0	2	1	0	1	22.5	157.5	2.09330030680041	1.34102227087628	0.2	0	0	0	261.649626812665	261.749604601646	0.0999777889810503	0.200048469239846
61821.75	100	461	3	45	1	2	0	2	1	0	1	112.5	67.5	0.38818432706429	2.47925627019455	0.2	0	0	0	261.949632347329	262.049614280928	0.0999819335993379	0.200027745682746
61896.75	100	462	3	46	1	2	0	2	1	0	2	157.5	22.5	2.52686376512179	2.05282043881084	0.2	0	0	0	262.249615207314	262.349591777194	0.0999765698798001	0.200000926386565
61971.75	100	463	3	47	1	2	0	2	1	0	2	157.5	22.5	-1.09353524606478	-1.47479565170739	0.2	0	0	0	262.549637320917	262.649644366931	0.100007046014071	0.200045543722808
62046.75	100	464	3	48	1	2	0	2	1	0	2	157.5	112.5	-0.0250119494941727	1.84910697541914	0.2	0	0	0	262.849643586902	262.949645269196	0.100001682294533	0.199999219970778
62121.75	100	465	3	49	1	2	0	2	1	0	1	22.5	157.5	1.45979129249033	-0.858413485644574	0.2	0	0	0	263.149668138474	263.249652997823	0.0999848593492061	0.200022869277745
62196.75	100	466	3	50	1	2	0	2	1	0	1	22.5	67.5	-2.90470651600217	2.38064515073478	0.2	0	0	0	263.449686350999	263.549641465768	0.099955114768818	0.200033353175968
62271.75	100	467	3	51	1	2	0	2	1	0	2	157.5	22.5	2.29114135599983	1.06293066703655	0.2	0	0	0	263.749687740812	263.84966601734	0.0999782765284181	0.20004627504386
62346.75	100	468	3	52	1	2	0	2	1	0	2	157.5	22.5	1.20021918032688	-1.91426314190695	0.2	0	0	0	264.049676696071	264.149639125215	0.0999624291434884	0.200010678730905
62421.75	100	469	3	53	1	2	0	2	1	0	2	67.5	112.5	0.78813494300912	2.063458811818	0.2	0	0	0	264.3496985659	264.44968391303	0.0999853471294045	0.200059440685436
62496.75	100	470	3	54	1	2	0	2	1	0	2	67.5	22.5	0.848475934416582	0.298491501639596	0.2	0	0	0	264.649703856558	264.749683352187	0.0999794956296682	0.200019943527877
62571.75	100	471	3	55	1	2	0	2	1	0	1	112.5	157.5	0.669239807955797	1.14764691489409	0.2	0	0	0	264.94971061009	265.049690349493	0.0999797394033521	0.200027257902548
62646.75	100	472	3	56	1	2	0	2	1	0	1	22.5	157.5	-0.970619616044832	0.123900595295197	0.2	0	0	0	265.249721996021	265.349699053448	0.0999770574271679	0.20003164652735
62721.75	100	473	3	57	1	2	0	2	1	0	2	67.5	22.5	2.46362151572568	-2.07270922396432	0.2	0	0	0	265.549726067577	265.649708001409	0.0999819338321686	0.200027014128864
62796.75	100	474	3	58	1	2	0	2	1	0	2	157.5	112.5	-2.73206550239263	2.30959671316839	0.2	0	0	0	265.849733796436	265.949715973809	0.0999821773730218	0.200025795027614
62871.75	100	475	3	59	1	2	0	2	1	0	1	22.5	157.5	-0.714210534381125	2.72761342616922	0.2	0	0	0	266.149742987938	266.249725165544	0.0999821776058525	0.200027014128864
62946.75	100	476	3	60	1	2	0	2	1	0	1	22.5	157.5	0.751273887979033	-2.54755970081239	0.2	0	0	0	266.449733893853	266.549718265655	0.0999843718018383	0.200008728308603
63021.75	100	477	3	61	1	2	0	2	1	0	2	67.5	22.5	-2.68367536364523	-3.12262236616422	0.2	0	0	0	266.749762346502	266.849747937405	0.0999855909030885	0.200044080847874
63096.75	100	478	3	62	1	2	0	2	1	3	1	22.5	67.5	0.320472789028766	2.851678354976	0.2	0	0	0	267.049775439082	267.149761029985	0.0999855909030885	0.200027501676232
63171.75	100	479	3	63	1	2	0	2	1	3	1	112.5	157.5	-0.305883314546061	2.18824386466466	0.2	0	0	0	267.349779998418	267.449771196814	0.0999911983963102	0.200018968433142
63246.75	100	480	3	64	1	2	0	2	1	3	2	67.5	22.5	1.91212417650779	0.265739869036444	0.2	0	0	0	267.649788214592	267.749754300807	0.0999660862144083	0.200017017778009
63321.75	100	481	3	65	1	2	0	2	1	2	-1	135	0	-2.32674444065461	1.53007536400476	0.2	0	0	0	267.949789848179	268.049770319136	0.0999804709572345	0.200035547371954
63396.75	100	482	3	66	1	2	0	2	1	3	1	112.5	67.5	-2.93094387614742	-2.37078412214267	0.2	0	0	0	268.249788068468	268.349764882121	0.099976813653484	0.200017749331892
63471.75	100	483	3	67	1	2	0	2	1	3	1	22.5	157.5	-1.18397167936104	0.619045018025429	0.2	0	0	0	268.549814570462	268.649796748068	0.0999821776058525	0.200049688341096
63546.75	100	484	3	68	1	2	0	2	1	3	2	157.5	112.5	-1.34727378344925	1.35003366547493	0.2	0	0	0	268.849799868884	268.949803014053	0.100003145169467	0.200003120815381
63621.75	100	485	3	69	1	2	0	2	1	3	2	67.5	112.5	-1.48549782523581	-0.167586882921961	0.2	0	0	0	269.149807109963	269.249796114163	0.0999890042003244	0.200004095910117
63696.75	100	486	3	70	1	2	0	2	1	0	1	22.5	67.5	1.70453798914007	-0.200868452788489	0.2	0	0	0	269.449800453847	269.549798479071	0.0999980252236128	0.200004339683801
63771.75	100	487	3	71	1	2	0	2	1	0	1	112.5	157.5	0.874965540238708	-2.53196862142399	0.2	0	0	0	269.749850361841	269.849826687947	0.0999763261061162	0.200051882769912
63846.75	100	488	3	72	1	2	0	2	1	0	2	157.5	112.5	0.578599441434555	2.51238939670373	0.2	0	0	0	270.04985760292	270.149836366996	0.0999787640757859	0.200030914973468
63921.75	100	489	3	73	1	2	0	2	1	0	2	67.5	22.5	-2.11632245237771	2.93103767463577	0.2	0	0	0	270.349863868905	270.449847752927	0.0999838840216398	0.200027501909062
63996.75	100	490	3	74	1	2	0	2	1	0	1	22.5	67.5	0.579342688551254	0.162255526031118	0.2	0	0	0	270.649870622437	270.749857432209	0.099986809771508	0.200022869510576
64071.75	100	491	3	75	1	2	0	2	1	0	2	157.5	22.5	1.79072350271317	-2.20411423931177	0.2	0	0	0	270.94988347101	271.049843218178	0.0999597471673042	0.200026038801298
64146.75	100	492	3	76	1	2	0	2	1	0	1	22.5	67.5	-2.32418404013567	-0.0322709580027905	0.2	0	0	0	271.249891931424	271.349867038429	0.099975107004866	0.20004871324636
64221.75	100	493	3	77	1	2	0	2	1	0	2	67.5	112.5	1.73641422280898	-1.53015149088916	0.2	0	0	0	271.549871378113	271.649855018593	0.0999836404807866	0.200004339683801
64296.75	100	494	3	78	1	2	0	2	1	0	2	157.5	112.5	-2.49235678211382	-2.0160319466624	0.2	0	0	0	271.849883251591	271.949892735807	0.100009484216571	0.200028232997283
64371.75	100	495	3	79	1	2	0	2	1	0	2	157.5	112.5	-2.52104615881575	-1.092158784885	0.2	0	0	0	272.149916336639	272.249897782691	0.0999814460519701	0.200023600831628
64446.75	100	496	3	80	1	2	0	2	1	0	1	22.5	157.5	0.966111414874613	-1.52575814911406	0.2	0	0	0	272.449922846397	272.549903317122	0.0999804707244039	0.200025063706562
64521.75	100	497	3	81	1	2	0	2	1	0	2	67.5	22.5	-0.987283351647761	2.12240041339231	0.2	0	0	0	272.749930331251	272.849892272614	0.09996194136329	0.200027014128864
64596.75	100	498	3	82	1	2	0	2	1	0	2	67.5	112.5	0.688708474121743	-2.70723625140031	0.2	0	0	0	273.04994049808	273.149902439443	0.09996194136329	0.200048225466162
64671.75	100	499	3	83	1	2	0	2	1	0	1	112.5	157.5	-2.5912628761463	1.64381385527347	0.2	0	0	0	273.349943838315	273.449921627296	0.0999777889810503	0.20004139887169
64746.75	100	500	3	84	1	2	0	2	1	0	2	67.5	112.5	-0.416328408292319	-1.22063757086302	0.2	0	0	0	273.649927186081	273.749916678062	0.0999894919805229	0.200005558785051
64821.75	100	501	3	85	1	2	0	2	1	0	2	67.5	112.5	-1.99718040032492	2.05834227582264	0.2	0	0	0	273.949962221552	274.049930501962	0.0999682804103941	0.200045543489978
64896.75	100	502	3	86	1	2	0	2	1	0	1	22.5	67.5	1.86342792609239	-2.10946020708516	0.2	0	0	0	274.249971900834	274.349947983166	0.0999760823324323	0.20004139887169
64971.75	100	503	3	87	1	2	0	2	1	0	2	67.5	112.5	2.80513701020827	-2.47082736736894	0.2	0	0	0	274.549977923045	274.649956687121	0.0999787640757859	0.200029939878732
65046.75	100	504	3	88	1	2	0	2	1	0	2	157.5	22.5	-2.29575620736424	-0.789263385915406	0.2	0	0	0	274.849983945023	274.949950275011	0.0999663299880922	0.200027257902548
65121.75	100	505	3	89	1	2	0	2	1	3	2	67.5	112.5	-2.25137568361625	1.73047378942051	0.2	0	0	0	275.149991673883	275.249974339036	0.0999826651532203	0.20004139887169
65196.75	100	506	3	90	1	2	0	2	1	3	1	112.5	67.5	-1.69241361889119	0.879768091262515	0.2	0	0	0	275.449998914963	275.549983286764	0.0999843718018383	0.200024575926363
65271.75	100	507	3	91	1	2	0	2	1	3	1	22.5	157.5	-0.0238028485894226	-2.6638053401186	0.2	0	0	0	275.749993965728	275.849966878304	0.0999729125760496	0.200010678963736
65346.75	100	508	3	92	1	2	0	2	1	1	-1	0	45	-2.16791085519535	1.79174756367254	0.2	0	0	0	276.050018029753	276.149997769156	0.0999797394033521	0.200051151448861
65421.75	100	509	3	93	1	2	0	2	1	3	2	157.5	112.5	-2.83140430330552	1.83555061373034	0.2	0	0	0	276.350023076404	276.450006960658	0.0999838842544705	0.200025307247415
65496.75	100	510	3	94	1	2	0	2	1	3	1	112.5	157.5	-2.82933839167083	2.36489684910357	0.2	0	0	0	276.650002035778	276.749987626681	0.0999855909030885	0.199995075119659
65571.75	100	511	3	95	1	2	0	2	1	3	2	67.5	22.5	0.867955000131091	1.55892049118762	0.2	0	0	0	276.950029756874	277.050009252504	0.0999794956296682	0.200042130192742
65646.75	100	512	3	96	1	2	0	2	1	3	2	157.5	22.5	-1.75250762851406	-1.24910137155788	0.2	0	0	0	277.250016517937	277.350001133746	0.0999846158083528	0.200007265433669
65721.75	100	513	3	97	1	2	0	2	1	0	1	22.5	157.5	0.311292308471547	1.68883609633177	0.2	0	0	0	277.550055210711	277.650034218561	0.0999790078494698	0.200054076965898
65796.75	100	514	3	98	1	2	0	2	1	0	1	22.5	67.5	-0.993741523261649	-1.74010184540153	0.2	0	0	0	277.850060013589	277.950046092039	0.0999860784504563	0.200025795027614
65871.75	100	515	3	99	1	2	0	2	1	0	2	67.5	112.5	-1.02136121243174	2.68991567566113	0.2	0	0	0	278.150065792026	278.250049919821	0.0999841277953237	0.200019699987024
65946.75	100	516	3	100	1	2	0	2	1	0	2	157.5	22.5	0.663746940879134	-0.866249139600151	0.2	0	0	0	278.450049627339	278.55005691736	0.100007290020585	0.199999707518145
66021.75	100	517	3	101	1	2	0	2	1	0	1	22.5	67.5	2.80214053463925	-1.33906626608809	0.2	0	0	0	278.750087832334	278.850068059284	0.09998022695072	0.200030914973468
66096.75	100	518	3	102	1	2	0	2	1	0	2	67.5	22.5	0.819873015416673	-2.18236151014287	0.2	0	0	0	279.050066303927	279.15005725855	0.0999909546226263	0.199998244643211
66171.75	100	519	3	103	1	2	0	2	1	0	2	157.5	112.5	-2.71994738643134	1.00490039195319	0.2	0	0	0	279.350102558499	279.450061086332	0.0999585278332233	0.200045299949124
66246.75	100	520	3	104	1	2	0	2	1	0	2	67.5	22.5	-2.41370152727653	2.6059730804764	0.2	0	0	0	279.650068108225	279.750074422918	0.100006314693019	0.200007021892816
66321.75	100	521	3	105	1	2	0	2	1	0	1	22.5	67.5	3.12998863972473	-3.03160825924704	0.2	0	0	0	279.950118991314	280.050081907772	0.0999629164580256	0.200044568395242
66396.75	100	522	3	106	1	2	0	2	1	0	2	67.5	22.5	2.43865492756023	-0.88177563547956	0.2	0	0	0	280.250130133238	280.350110116415	0.099979983177036	0.200048225466162
66471.75	100	523	3	107	1	2	0	2	1	0	2	67.5	22.5	2.6384222596666	0.950820089263766	0.2	0	0	0	280.550113968784	280.650114188204	0.100000219419599	0.200003852369264
66546.75	100	524	3	108	1	2	0	2	1	0	2	67.5	22.5	0.715596036473403	2.30967491762147	0.2	0	0	0	280.85014168988	280.95012484258	0.0999831527005881	0.200027501676232
66621.75	100	525	3	109	1	2	0	2	1	0	1	112.5	157.5	1.58257712854962	-2.98178214349774	0.2	0	0	0	281.150147955865	281.250130133238	0.0999821773730218	0.20002311328426
66696.75	100	526	3	110	1	2	0	2	1	0	1	22.5	67.5	1.09983331047436	-2.5246688114901	0.2	0	0	0	281.450162267312	281.55013981252	0.0999775452073663	0.200032134074718
66771.75	100	527	3	111	1	2	0	2	1	0	2	67.5	112.5	-0.717277646694662	2.47498706514991	0.2	0	0	0	281.750168289524	281.850149248028	0.0999809585046023	0.200028477003798
66846.75	100	528	3	112	1	2	0	2	1	0	1	22.5	157.5	-1.79526328065481	-2.32637867938095	0.2	0	0	0	282.050174799282	282.150155270007	0.0999804707244039	0.20002555125393
66921.75	100	529	3	113	1	2	0	2	1	0	2	157.5	22.5	2.27804614341219	-0.482211288349415	0.2	0	0	0	282.350165705197	282.450171532109	0.10000582691282	0.200010435190052
66996.75	100	530	3	114	1	2	0	2	1	0	1	22.5	67.5	1.23949406704919	2.98276999490421	0.2	0	0	0	282.650198058691	282.750176335219	0.0999782765284181	0.200026526581496
67071.75	100	531	3	115	1	2	0	2	1	0	2	157.5	112.5	-0.500546479090924	0.0370198029104638	0.2	0	0	0	282.950178236933	283.050188696478	0.100010459544137	0.200001901714131
67146.75	100	532	3	116	1	2	0	2	1	0	2	67.5	22.5	2.73043998446062	1.40535574980488	0.2	0	0	0	283.250211321982	283.350173750892	0.0999624289106578	0.200022625504062
67221.75	100	533	3	117	1	2	0	2	1	0	2	157.5	22.5	0.216899832166367	1.96430180494133	0.2	0	0	0	283.550218319288	283.650179285323	0.0999609660357237	0.200044568395242
67296.75	100	534	3	118	1	2	0	2	1	0	1	112.5	67.5	3.06390605586835	-2.77279420876719	0.2	0	0	0	283.850209468976	283.950175311184	0.0999658422078937	0.200030183652416
67371.75	100	535	3	119	1	2	0	2	1	0	2	157.5	22.5	0.135910210309148	-2.03278746246261	0.2	0	0	0	284.150221586227	284.25021254085	0.0999909546226263	0.20004627504386
67446.75	100	536	3	120	1	2	0	2	1	0	2	157.5	112.5	2.38693611415424	-0.828474485027195	0.2	0	0	0	284.450216393219	284.550225389656	0.100008996436372	0.200003852369264
67521.75	100	537	3	121	1	2	0	2	1	0	1	112.5	157.5	0.640361232050253	2.65153574577317	0.2	0	0	0	284.750251916237	284.850209956523	0.0999580402858555	0.200026526581496
67596.75	100	538	3	122	1	2	0	2	1	0	1	112.5	157.5	-2.79851980016852	-0.484354520568509	0.2	0	0	0	285.050238433527	285.150241091149	0.100002657622099	0.200028477003798
67671.75	100	539	3	123	1	2	0	2	1	0	2	157.5	112.5	2.27072698480971	1.47771207100609	0.2	0	0	0	285.350251282332	285.450221025618	0.0999697432853281	0.200010191183537
67746.75	100	540	3	124	1	2	0	2	1	0	1	112.5	67.5	-2.17552335387993	1.1743381629404	0.2	0	0	0	285.650271689054	285.750254841987	0.0999831529334188	0.200050663435832
67821.75	100	541	3	125	1	2	0	2	1	0	2	157.5	22.5	-2.00225375691654	-2.53974670539182	0.2	0	0	0	285.95028209989	286.050265983911	0.0999838840216398	0.200027257902548
67896.75	100	542	3	126	1	2	0	2	1	0	1	112.5	67.5	2.22087361928	-0.350894567625907	0.2	0	0	0	286.250289340969	286.350252257427	0.0999629164580256	0.200023357057944
67971.75	100	543	3	127	1	2	0	2	1	0	1	112.5	157.5	1.8902158801875	2.54515913082251	0.2	0	0	0	286.550272444962	286.650256085442	0.0999836404807866	0.200020187534392
68046.75	100	544	3	128	1	2	0	2	1	0	1	22.5	157.5	-2.76517693452629	1.8063780796975	0.2	0	0	0	286.850300653838	286.950285269413	0.0999846155755222	0.200044568395242
68121.75	100	545	3	129	1	2	0	2	1	0	1	22.5	67.5	-1.63148977145704	1.74909142734969	0.2	0	0	0	287.150308626238	287.250293242047	0.0999846158083528	0.200023356825113
68196.75	100	546	3	130	1	2	0	2	1	0	2	157.5	22.5	-2.88151609177494	-1.87371420282353	0.2	0	0	0	287.450310259825	287.550289267907	0.0999790080823004	0.200017017778009
68271.75	100	547	3	131	1	2	0	2	1	0	2	157.5	22.5	1.94556864773846	-2.84956758449585	0.2	0	0	0	287.750315794256	287.850294558564	0.0999787643086165	0.200026526348665
68346.75	100	548	3	132	1	2	0	2	1	3	1	22.5	67.5	0.0325606567378389	1.43284707140484	0.2	0	0	0	288.050337664085	288.150315209292	0.0999775452073663	0.200043105520308
68421.75	100	549	3	133	1	2	0	2	1	3	2	157.5	22.5	-0.252162720501925	0.474980820868257	0.2	0	0	0	288.350341491867	288.450346587459	0.100005095591769	0.200026282574981
68496.75	100	550	3	134	1	2	0	2	1	3	2	157.5	112.5	-1.18008428978168	1.35183049950484	0.2	0	0	0	288.650361167267	288.750340662897	0.0999794956296682	0.200014579808339
68571.75	100	551	3	135	1	2	0	2	1	3	2	67.5	112.5	2.77420299085677	2.12468116414336	0.2	0	0	0	288.950368408347	289.05034570978	0.0999773014336824	0.200027745449916
69905.25	100	552	4	0	1	1	90	2	1	3	2	67.5	112.5	2.03647522570658	1.66851120680504	0.2	1	0	0	294.283839006675	294.383823134471	0.0999841277953237	-1
69980.25	100	553	4	1	1	1	90	2	1	3	2	67.5	22.5	-1.23310428704282	1.62799961964962	0.2	0	0	0	294.583869653521	294.683804775821	0.0999351222999394	0.200046519050375
70055.25	100	554	4	2	1	1	90	2	1	3	1	112.5	67.5	-0.88586769920559	-1.96316383521881	0.2	0	0	0	294.883854464162	294.983864192152	0.100009727990255	0.200049688341096
70130.25	100	555	4	3	1	1	90	2	1	3	2	157.5	22.5	-1.96947323843931	-0.965694501763693	0.2	0	0	0	295.183863899438	295.283846077044	0.0999821776058525	0.199999707285315
70205.25	100	556	4	4	1	1	90	2	1	0	2	157.5	112.5	-0.884094386188232	-0.297181837384151	0.2	0	0	0	295.483858950203	295.583827718161	0.0999687679577619	0.200012873159721
70280.25	100	557	4	5	1	1	90	2	1	0	1	112.5	157.5	1.90996498655421	-2.3475646459333	0.2	0	0	0	295.783860096009	295.883844711818	0.0999846158083528	0.200032377848402
70355.25	100	558	4	6	1	1	90	2	1	0	1	22.5	157.5	-2.34898544910197	-0.460252441623735	0.2	0	0	0	296.083868800197	296.18387511489	0.100006314693019	0.200024088378996
70430.25	100	559	4	7	1	1	90	2	1	0	1	112.5	67.5	1.16400296434758	-2.48533186946133	0.2	0	0	0	296.383893595543	296.483879917767	0.0999863222241402	0.200018480652943
70505.25	100	560	4	8	1	1	90	2	1	0	1	112.5	157.5	1.88113455465399	3.13930425933099	0.2	0	0	0	296.683907175669	296.783868873259	0.099961697589606	0.200027257902548
70580.25	100	561	4	9	1	1	90	2	1	0	1	22.5	67.5	-1.56331254950611	0.375617948622727	0.2	0	0	0	296.983895399841	297.083876602119	0.0999812022782862	0.200026526581496
70655.25	100	562	4	10	1	1	90	2	1	0	2	67.5	112.5	-0.569688194472273	2.57864020316998	0.2	0	0	0	297.283904347569	297.383910174714	0.100005827145651	0.200027745449916
70730.25	100	563	4	11	1	1	90	2	1	0	2	157.5	22.5	2.74803879827626	2.64375550591118	0.2	0	0	0	297.583932800218	297.683898398653	0.0999655984342098	0.200022625504062
70805.25	100	564	4	12	1	1	90	2	1	0	2	67.5	22.5	1.63065997863794	1.31960558300039	0.2	0	0	0	297.883938578423	297.983925875975	0.0999872975517064	0.20004017977044
70880.25	100	565	4	13	1	1	90	2	1	0	2	157.5	22.5	1.24770943397696	-3.05667322614119	0.2	0	0	0	298.1839492328	298.283936286578	0.0999870537780225	0.200023356825113
70955.25	100	566	4	14	1	1	90	2	1	0	1	112.5	67.5	1.25250305861095	-1.26228060606711	0.2	0	0	0	298.483958668308	298.583923779195	0.099965110886842	0.200022381730378
71030.25	100	567	4	15	1	1	90	2	1	0	1	112.5	157.5	-2.28829941456365	3.11101570267095	0.2	0	0	0	298.78397127334	298.883933458477	0.0999621851369739	0.20004749414511
71105.25	100	568	4	16	1	1	90	2	1	0	1	22.5	67.5	-2.75499380289919	-0.423293070973859	0.2	0	0	0	299.0839731507	299.183953865198	0.0999807144980878	0.200039692223072
71180.25	100	569	4	17	1	1	90	2	1	0	1	22.5	157.5	-1.80456398935453	0.365927323966408	0.2	0	0	0	299.383961130865	299.483959155856	0.0999980249907821	0.2000072656665
71255.25	100	570	4	18	1	1	90	2	1	0	2	67.5	112.5	0.117727462628215	1.44869449324838	0.2	0	0	0	299.683996653883	299.783963958966	0.0999673050828278	0.200037498027086
71330.25	100	571	4	19	1	1	90	2	1	0	2	67.5	112.5	1.17264789606787	0.809357121376349	0.2	0	0	0	299.983993898844	300.083970468724	0.0999765698798001	0.200029939878732
71405.25	100	572	4	20	1	1	90	2	1	0	1	22.5	157.5	-2.3571125620714	-2.1310875013014	0.2	0	0	0	300.284002359025	300.383979416452	0.0999770574271679	0.200031890301034
71480.25	100	573	4	21	1	1	90	2	1	0	1	22.5	67.5	1.59497928382052	-1.90701714657948	0.2	0	0	0	300.584003504831	300.683986657765	0.0999831529334188	0.200024088378996
71555.25	100	574	4	22	1	1	90	2	1	0	2	157.5	22.5	0.335238595175224	0.605970369683428	0.2	0	0	0	300.88401294034	300.983999750344	0.0999868100043386	0.200026282574981
71630.25	100	575	4	23	1	1	90	2	1	0	2	67.5	112.5	1.98107544640296	-2.93318623040425	0.2	0	0	0	301.184018718544	301.284003090346	0.0999843718018383	0.200018968200311
71705.25	100	576	4	24	1	1	90	2	1	0	2	157.5	22.5	1.94963495996216	-1.31427295996163	0.2	0	0	0	301.484028885607	301.584014232503	0.0999853468965739	0.200025795260444
71780.25	100	577	4	25	1	1	90	2	1	0	2	157.5	22.5	-2.88065675152808	0.457638728042491	0.2	0	0	0	301.784042953281	301.884019523161	0.0999765698798001	0.200028720777482
71855.25	100	578	4	26	1	1	90	2	1	0	2	67.5	112.5	-0.524306730640351	-2.28263839233132	0.2	0	0	0	302.084046537289	302.184028227115	0.099981689825654	0.200027014128864
71930.25	100	579	4	27	1	1	90	2	1	0	2	157.5	112.5	-2.94717400529475	-1.38763628545063	0.2	0	0	0	302.384052559501	302.484041319694	0.0999887601938099	0.20002433238551
72005.25	100	580	4	28	1	1	90	2	1	0	2	67.5	112.5	3.13130019113192	1.23218535509786	0.2	0	0	0	302.684056631057	302.784054900054	0.0999982689972967	0.200015311362222
72080.25	100	581	4	29	1	1	90	2	1	0	1	22.5	67.5	0.672463570036441	0.193432640326217	0.2	0	0	0	302.984075087355	303.084056289634	0.0999812022782862	0.200020187301561
72155.25	100	582	4	30	1	1	90	2	1	0	2	67.5	22.5	-2.46008943584126	1.3741117362309	0.2	0	0	0	303.284056484699	303.384063043166	0.100006558466703	0.200000195065513
72230.25	100	583	4	31	1	1	90	2	1	3	2	67.5	22.5	1.65728803440273	0.296055244004565	0.2	0	0	0	303.58407372213	303.684074185323	0.100000463193282	0.200010678963736
72305.25	100	584	4	32	1	1	90	2	1	3	1	22.5	157.5	-2.5263231283161	-1.25223398083151	0.2	0	0	0	303.884071698412	303.984051681589	0.099979983177036	0.199997513089329
72380.25	100	585	4	33	1	1	90	2	1	3	1	22.5	67.5	-0.682723174067342	-0.654326350777274	0.2	0	0	0	304.184104539687	304.284070625668	0.0999660859815776	0.200052858097479
72455.25	100	586	4	34	1	1	90	2	1	1	-1	90	45	-1.67287474825317	0.910364197985957	0.2	0	0	0	304.48411251232	304.584103710717	0.0999911983963102	0.200041886651888
72530.25	100	587	4	35	1	1	90	2	1	3	1	112.5	157.5	-3.02438919155948	-1.59432650112621	0.2	0	0	0	304.784122922923	304.884103637422	0.0999807144980878	0.200019212206826
72605.25	100	588	4	36	1	1	90	2	1	3	2	157.5	112.5	0.647099608781857	-1.77645114258908	0.2	0	0	0	305.084110903088	305.184090154944	0.0999792518559843	0.2000072656665
72680.25	100	589	4	37	1	1	90	2	1	3	1	112.5	67.5	1.09596299947785	-2.72394686676499	0.2	0	0	0	305.384112536674	305.484122020891	0.100009484216571	0.200022381730378
72755.25	100	590	4	38	1	1	90	2	1	3	2	157.5	22.5	1.89150759827972	-1.43301285557556	0.2	0	0	0	305.6841307492	305.784115364775	0.0999846155755222	0.200008728308603
72830.25	100	591	4	39	1	1	90	2	1	0	2	67.5	22.5	-0.411032548958687	-2.96421277316405	0.2	0	0	0	305.984157494968	306.084136259276	0.0999787643086165	0.200042130192742
72905.25	100	592	4	40	1	1	90	2	1	0	1	112.5	67.5	-1.94086744500207	2.44508429054105	0.2	0	0	0	306.2841642485	306.384128384292	0.0999641357921064	0.200027989223599
72980.25	100	593	4	41	1	1	90	2	1	0	1	112.5	67.5	-1.61481836979787	2.46356560556275	0.2	0	0	0	306.584168564063	306.68415805581	0.0999894917476922	0.20004017977044
73055.25	100	594	4	42	1	1	90	2	1	0	2	157.5	112.5	-2.11159512321081	-0.0328924956850871	0.2	0	0	0	306.88417970622	306.984136527404	0.0999568211846054	0.200021650409326
73130.25	100	595	4	43	1	1	90	2	1	0	2	157.5	22.5	0.273627309141463	-0.830063358846095	0.2	0	0	0	307.18416037201	307.284174732398	0.100014360388741	0.200023844605312
