onset	duration	total_event_number	stream_number	event_num_per_stream	timing_predictability	target_col	target_ori	n_targets	n_distractors	is_target	ori_pair_num	att_ori	unatt_ori	gabor_phase_att	gabor_phase_unatt	blank_dur	response	rt	correct	time_stimon	time_stimoff	stim_dur	ISI_dur
6184	100	0	0	0	2	2	0	1	1	3	2	157.5	22.5	-1.75288871454518	-2.93798412505711	0.133333333333333	0	0	0	194.541461653076	194.64140335843	0.0999417053535581	-1
6279.75	100	1	0	1	2	2	0	1	1	3	1	112.5	157.5	-0.488477021194906	-2.98364293356746	0.283333333333333	0	0	0	194.924784490373	195.024767155759	0.0999826653860509	0.283381131943315
6329.75	100	2	0	2	2	2	0	1	1	3	2	67.5	112.5	-0.868929275460085	-2.69946961009073	0.1	0	0	0	195.124769813381	195.224777346943	0.100007533561438	0.100002657622099
6417.25	100	3	0	3	2	2	0	1	1	3	2	157.5	112.5	1.32443384073195	-0.448887877499403	0.25	0	0	0	195.474798497278	195.574760682415	0.0999621851369739	0.25002115033567
6471.5	100	4	0	4	2	2	0	1	1	0	1	22.5	157.5	2.48566781698897	-2.93766695755366	0.116666666666667	0	0	0	195.691474050749	195.791455497034	0.0999814462848008	0.116713368333876
6521.5	100	5	0	5	2	2	0	1	1	0	2	157.5	22.5	-0.192250557229849	0.935057255047072	0.1	0	0	0	195.891476196237	195.991461299825	0.0999851035885513	0.100020699203014
6596.5	100	6	0	6	2	2	0	1	1	0	2	67.5	112.5	-2.06074425217849	1.42958776581839	0.2	0	0	0	196.191482950002	196.29144050274	0.0999575527384877	0.200021650176495
6688.25	100	7	0	7	2	2	0	1	1	0	1	22.5	67.5	-1.58427813517037	2.27592465898875	0.266666666666667	0	0	0	196.558135305066	196.658142838627	0.100007533561438	0.266694802325219
6759	100	8	0	8	2	2	0	1	1	0	1	22.5	67.5	-1.57532560021846	0.715620520128663	0.183333333333333	0	0	0	196.841502052266	196.94147642795	0.0999743756838143	0.183359213639051
6809	100	9	0	9	2	2	0	1	1	0	2	157.5	112.5	-2.49955558121686	-1.75664835357799	0.1	0	0	0	197.041511024814	197.141490520444	0.0999794956296682	0.100034596864134
6904.75	100	10	0	10	2	2	0	1	1	0	1	112.5	157.5	0.109765469117199	2.905547891449	0.283333333333333	0	0	0	197.424847271293	197.524832618423	0.0999853471294045	0.283356750849634
7004.75	100	11	0	11	2	2	0	1	1	0	2	157.5	112.5	0.506244756150819	2.51768152774423	0.3	0	0	0	197.82486155862	197.924842517357	0.099980958737433	0.30002894019708
7088.25	100	12	0	12	2	2	0	1	1	0	2	157.5	22.5	-1.11086932689584	0.905682699682927	0.233333333333333	0	0	0	198.158175874967	198.258183408529	0.100007533561438	0.233333357609808
7167.25	100	13	0	13	2	2	0	1	1	0	2	67.5	22.5	-1.50215899551657	-1.48486525504766	0.216666666666667	0	0	0	198.474860425107	198.574837482534	0.0999770574271679	0.216677016578615
7238.25	100	14	0	14	2	2	0	1	1	0	1	22.5	157.5	-0.685865102421801	2.6340043424309	0.183333333333333	0	0	0	198.758197915275	198.858834721614	0.100636806339025	0.183360432740301
7309	100	15	0	15	2	2	0	1	1	0	2	157.5	22.5	-0.295044229824356	-1.34618365014568	0.183333333333333	0	0	0	199.041540281847	199.141520265024	0.099979983177036	0.182705560233444
7409	100	16	0	16	2	2	0	1	1	0	1	22.5	157.5	2.5005141566395	2.71494022790053	0.3	0	0	0	199.441548961215	199.541525531095	0.0999765698798001	0.300028696190566
7479.75	100	17	0	17	2	2	0	1	1	0	2	67.5	112.5	1.56465746197209	1.9740113813968	0.183333333333333	0	0	0	199.724887426943	199.824865459464	0.0999780325219035	0.183361895848066
7546.5	100	18	0	18	2	2	0	1	1	0	2	67.5	22.5	2.85336944715303	-3.10987840330952	0.166666666666667	0	0	0	199.991551265586	200.091569039039	0.100017773453146	0.166685806121677
7621.5	100	19	0	19	2	2	0	1	1	0	1	22.5	67.5	-1.80800546390503	2.83200490337958	0.2	0	0	0	200.291598735377	200.391577742994	0.0999790076166391	0.200029696337879
7688.25	100	20	0	20	2	2	0	1	1	0	2	157.5	112.5	-2.48523729871126	1.94897578819326	0.166666666666667	0	0	0	200.558246482164	200.658220126294	0.0999736441299319	0.166668739169836
7738.25	100	21	0	21	2	2	0	1	1	3	1	22.5	67.5	-0.894692463488969	-3.06564456155948	0.1	0	0	0	200.75827398384	200.858255673666	0.099981689825654	0.1000538575463
7829.75	100	22	0	22	2	2	0	1	1	3	1	112.5	67.5	1.34949759774008	0.516619652995228	0.266666666666667	0	0	0	201.124949013349	201.224932653829	0.0999836404807866	0.266693339683115
7913.25	100	23	0	23	2	2	0	1	1	3	2	157.5	112.5	-1.95968904290961	-1.73976582017387	0.233333333333333	0	0	0	201.458265767433	201.558278664947	0.100012897513807	0.233333113603294
7984	100	24	0	24	2	2	0	1	1	2	-1	45	0	1.67114334689222	2.01837244450248	0.183333333333333	0	0	0	201.741611059755	201.841617130674	0.100006070919335	0.183332394808531
8071.5	100	25	0	25	2	2	0	1	1	3	2	67.5	22.5	-1.71306451501399	1.09403860172957	0.25	0	0	0	202.091626090463	202.191628992092	0.100002901628613	0.250008959788829
8129.75	100	26	0	26	2	2	0	1	1	3	1	22.5	157.5	0.0388126526421946	-2.91053984392113	0.133333333333333	0	0	0	202.324957741424	202.42495210981	0.0999943683855236	0.133328749332577
8204.75	100	27	0	27	2	2	0	1	1	3	1	112.5	157.5	-2.11832832458708	2.15038065652633	0.2	0	0	0	202.624987169635	202.724982756656	0.0999955870211124	0.200035059824586
8284	100	28	0	28	2	2	0	1	1	3	2	67.5	112.5	2.69918677900433	1.93696018534314	0.216666666666667	0	0	0	202.941641487181	203.041624883655	0.099983396474272	0.216658730525523
8367.25	100	29	0	29	2	2	0	1	1	0	1	112.5	67.5	3.00816233487307	0.720251999611729	0.233333333333333	0	0	0	203.274980671704	203.374964312185	0.0999836404807866	0.233355788048357
8425.75	100	30	0	30	2	2	0	1	1	0	1	22.5	67.5	0.745339674951894	0.593669541526889	0.133333333333333	0	0	0	203.50832012482	203.608304252848	0.0999841280281544	0.133355812635273
8517.25	100	31	0	31	2	2	0	1	1	0	2	67.5	112.5	-0.0725887347260756	-2.92785586560625	0.266666666666667	0	0	0	203.874994666781	203.974980013445	0.0999853466637433	0.266690413933247
8567.25	100	32	0	32	2	2	0	1	1	0	1	22.5	157.5	2.21339692798198	-1.26116802942794	0.1	0	0	0	204.075006320607	204.17501507327	0.100008752662688	0.100026307161897
8667.25	100	33	0	33	2	2	0	1	1	0	1	22.5	67.5	1.33361956351321	1.87066667508851	0.3	0	0	0	204.475040112622	204.575008393265	0.0999682806432247	0.300025039352477
8734	100	34	0	34	2	2	0	1	1	0	1	22.5	157.5	1.98460490225328	-1.52535680098855	0.166666666666667	0	0	0	204.741701025516	204.84169636853	0.0999953430145979	0.166692632250488
8817.25	100	35	0	35	2	2	0	1	1	0	2	67.5	22.5	-0.252642749742412	1.47238089869405	0.233333333333333	0	0	0	205.075058739632	205.175026044715	0.0999673050828278	0.233362371101975
8875.75	100	36	0	36	2	2	0	1	1	0	1	112.5	67.5	-0.534310987295389	0.0778619309332713	0.133333333333333	0	0	0	205.308401606046	205.408361596987	0.0999599909409881	0.133375561330467
8925.75	100	37	0	37	2	2	0	1	1	0	1	112.5	157.5	0.123599328897418	-0.81490391393394	0.1	0	0	0	205.50840106979	205.608359354082	0.0999582842923701	0.100039472803473
9025.75	100	38	0	38	2	2	0	1	1	0	1	112.5	67.5	-0.215422641640807	-2.54148253231129	0.3	0	0	0	205.908382198773	206.008391926996	0.100009728223085	0.30002284469083
9125.75	100	39	0	39	2	2	0	1	1	0	2	67.5	112.5	2.42426136929253	1.69032445635961	0.3	0	0	0	206.308427937329	206.408408164512	0.0999802271835506	0.300036010332406
9188.25	100	40	0	40	2	2	0	1	1	0	1	112.5	157.5	3.13788681557402	1.52287117186995	0.15	0	0	0	206.558429583441	206.658412979916	0.099983396474272	0.1500214189291
9288.25	100	41	0	41	2	2	0	1	1	0	2	157.5	22.5	-2.97519332507352	1.05570371266624	0.3	0	0	0	206.958439725917	207.058425560128	0.0999858342111111	0.300026746001095
9367.25	100	42	0	42	2	2	0	1	1	0	2	157.5	22.5	-2.74251316004111	1.40167901364218	0.216666666666667	0	0	0	207.275119887199	207.375071832445	0.099951945245266	0.216694327071309
9429.75	100	43	0	43	2	2	0	1	1	0	2	67.5	22.5	-2.08685042654514	0.465252715910427	0.15	0	0	0	207.525126409251	207.625088594388	0.0999621851369739	0.150054576806724
9525.75	100	44	0	44	2	2	0	1	1	0	1	22.5	67.5	1.66800250875789	3.06758237033785	0.283333333333333	0	0	0	207.908467288595	208.008451416157	0.0999841275624931	0.283378694206476
9617.25	100	45	0	45	2	2	0	1	1	0	1	112.5	157.5	1.94093854040539	2.73595592473556	0.266666666666667	0	0	0	208.275125007145	208.375109866727	0.0999848595820367	0.266673590987921
9667.5	100	46	0	46	2	2	0	1	1	0	1	22.5	67.5	0.964722382272541	0.0267124409169668	0.1	0	0	0	208.475155434571	208.575133223552	0.0999777889810503	0.100045567844063
9730	100	47	0	47	2	2	0	1	1	0	2	157.5	112.5	-2.16399580624182	-0.736523051520015	0.15	0	0	0	208.725153910927	208.825120484456	0.0999665735289454	0.150020687375218
9784	100	48	0	48	2	2	0	1	1	0	2	157.5	112.5	-1.34325951716431	0.505126803974886	0.116666666666667	0	0	0	208.941837022547	209.04181919992	0.0999821773730218	0.116716538090259
9842.5	100	49	0	49	2	2	0	1	1	0	1	112.5	157.5	1.93392907730734	0.726735249309362	0.133333333333333	0	0	0	209.175169892609	209.275154995732	0.09998510312289	0.133350692689419
9896.5	100	50	0	50	2	2	0	1	1	0	2	67.5	112.5	2.10554937650772	-1.25935314299348	0.116666666666667	0	0	0	209.391845202073	209.491826160811	0.099980958737433	0.116690206341445
9971.5	100	51	0	51	2	2	0	1	1	0	2	67.5	22.5	-2.11360035738072	0.43650777582846	0.2	0	0	0	209.691833182704	209.79183876561	0.100005582906306	0.200007021892816
10050.75	100	52	0	52	2	2	0	1	1	0	1	22.5	67.5	1.44821806311266	2.628102048954	0.216666666666667	0	0	0	210.008532848675	210.108511612751	0.0999787640757859	0.216694083064795
10130	100	53	0	53	2	2	0	1	1	0	2	67.5	112.5	-1.00312854785224	-0.270895452059956	0.216666666666667	0	0	0	210.325205695815	210.425190799404	0.0999851035885513	0.216694083064795
10200.75	100	54	0	54	2	2	0	1	1	0	1	112.5	67.5	2.97805158184753	0.718600277551626	0.183333333333333	0	0	0	210.608534409199	210.708518780768	0.0999843715690076	0.183343609794974
10284	100	55	0	55	2	2	0	1	1	0	2	157.5	112.5	-0.0705060866132778	2.26057742986361	0.233333333333333	0	0	0	210.941881883424	211.041871862952	0.0999899795278907	0.233363102655858
10371.5	100	56	0	56	2	2	0	1	1	0	2	157.5	22.5	0.400252207732977	-2.43653149578313	0.25	0	0	0	211.291898864787	211.391865926329	0.0999670615419745	0.250027001835406
10421.5	100	57	0	57	2	2	0	1	1	0	2	67.5	112.5	2.90260459005667	-2.10587267739162	0.1	0	0	0	211.49190198537	211.591867096256	0.099965110886842	0.100036059040576
10484	100	58	0	58	2	2	0	1	1	0	1	112.5	67.5	-1.29989645023553	-2.81437878466208	0.15	0	0	0	211.741884857882	211.841869717464	0.0999848595820367	0.15001776162535
10559	100	59	0	59	2	2	0	1	1	0	1	22.5	157.5	1.48487128920523	-1.87006410689354	0.2	0	0	0	212.041899657343	212.141866718419	0.0999670610763133	0.200029939878732
10655	100	60	0	60	2	2	0	1	1	0	2	67.5	112.5	3.07080294683597	-1.67761629374726	0.283333333333333	0	0	0	212.425223469734	212.525241974741	0.100018505007029	0.283356751315296
10750.75	100	61	0	61	2	2	0	1	1	0	2	67.5	22.5	-0.536103009009099	0.133568255001922	0.283333333333333	0	0	0	212.808601408266	212.908568713348	0.0999673050828278	0.283359433524311
10830	100	62	0	62	2	2	0	1	1	0	1	112.5	157.5	-2.08020909292325	-1.34837054071624	0.216666666666667	0	0	0	213.125274986494	213.225245948881	0.0999709623865783	0.216706273145974
10925.75	100	63	0	63	2	2	0	1	1	0	1	112.5	67.5	0.622800807601641	2.84634797805013	0.283333333333333	0	0	0	213.508615134284	213.608578050975	0.0999629166908562	0.283369185402989
11000.75	100	64	0	64	2	2	0	1	1	0	2	157.5	22.5	2.57606699915093	-2.71846380240126	0.2	0	0	0	213.808601895813	213.908580659889	0.0999787640757859	0.200023844838142
11088.25	100	65	0	65	2	2	0	1	1	0	1	22.5	67.5	2.73804964176114	-0.431203881931137	0.25	0	0	0	214.158607905731	214.258590083104	0.0999821773730218	0.25002724584192
11175.75	100	66	0	66	2	2	0	1	1	0	1	112.5	157.5	-0.223268612425503	0.242504978514715	0.25	0	0	0	214.508646829985	214.608629738912	0.0999829089269042	0.250056746881455
11242.5	100	67	0	67	2	2	0	1	1	0	1	22.5	67.5	-1.19214347609367	0.517964506864039	0.166666666666667	0	0	0	214.775323346257	214.875286750495	0.099963404238224	0.166693607345223
11309	100	68	0	68	2	2	0	1	1	0	1	112.5	157.5	-2.74908622271813	1.26624640071535	0.166666666666667	0	0	0	215.041995230597	215.141957903281	0.0999626726843417	0.166708480101079
11388.25	100	69	0	69	2	2	0	1	1	0	1	22.5	157.5	1.69016195887622	-2.10129835448367	0.216666666666667	0	0	0	215.358637601603	215.458623923827	0.0999863222241402	0.216679698321968
11471.5	100	70	0	70	2	2	0	1	1	0	1	112.5	157.5	0.1793743894017	0.933957974443985	0.233333333333333	0	0	0	215.691983613186	215.791966765653	0.0999831524677575	0.233359689358622
11555	100	71	0	71	2	2	0	1	1	0	2	67.5	112.5	-1.06683766100121	-1.06049915956675	0.233333333333333	0	0	0	216.025346203707	216.125310339034	0.0999641353264451	0.233379438053817
11630	100	72	0	72	2	2	0	1	1	0	2	157.5	112.5	2.93465827854009	-0.673502546479294	0.2	0	0	0	216.32533198921	216.425317580346	0.0999855911359191	0.200021650176495
11721.5	100	73	0	73	2	2	0	1	1	0	1	112.5	67.5	-1.08630023398754	0.195371609592263	0.266666666666667	0	0	0	216.692030424252	216.791994072497	0.0999636482447386	0.266712843906134
11788.25	100	74	0	74	2	2	0	1	1	0	2	157.5	22.5	-3.1112541794894	0.111089336735393	0.166666666666667	0	0	0	216.958685973193	217.058674977627	0.0999890044331551	0.166691900696605
11846.5	100	75	0	75	2	2	0	1	1	0	2	157.5	112.5	2.91219049423105	-0.275506647893311	0.133333333333333	0	0	0	217.192023232114	217.292007603683	0.0999843715690076	0.133348254486918
11896.5	100	76	0	76	2	2	0	1	1	0	1	112.5	67.5	1.7980631128186	0.708929067890988	0.1	0	0	0	217.392028546892	217.492015844677	0.0999872977845371	0.100020943209529
11955	100	77	0	77	2	2	0	1	1	0	2	157.5	22.5	-2.60787466551405	1.90234122096107	0.133333333333333	0	0	0	217.625369463116	217.725348470733	0.0999790076166391	0.133353618439287
12046.5	100	78	0	78	2	2	0	1	1	0	2	157.5	22.5	0.542874439220654	-2.41166380167664	0.266666666666667	0	0	0	217.99208130734	218.092029107735	0.0999478003941476	0.266732836607844
12105	100	79	0	79	2	2	0	1	1	3	2	67.5	112.5	0.000887263850959386	-1.44961978760656	0.133333333333333	0	0	0	218.225384188816	218.325396111235	0.100011922419071	0.13335508108139
12184	100	80	0	80	2	2	0	1	1	3	2	67.5	22.5	2.63715003577356	0.710589767356893	0.216666666666667	0	0	0	218.542089950759	218.642044333741	0.099954382982105	0.216693839523941
12267.5	100	81	0	81	2	2	0	1	1	3	1	22.5	157.5	-2.5933932535095	1.76840042841493	0.233333333333333	0	0	0	218.875400853343	218.975387907121	0.0999870537780225	0.233356519602239
12367.5	100	82	0	82	2	2	0	1	1	1	-1	0	45	1.60178839236586	-2.00244012835414	0.3	0	0	0	219.275441715959	219.375420724042	0.0999790080823004	0.300053808838129
12463.25	100	83	0	83	2	2	0	1	1	3	1	112.5	157.5	-2.15667636269179	2.39093342450685	0.283333333333333	0	0	0	219.65878503304	219.758765260223	0.0999802271835506	0.283364308997989
12513.25	100	84	0	84	2	2	0	1	1	3	2	157.5	112.5	2.16885468019423	0.467868334576577	0.1	0	0	0	219.858777426183	219.95877203811	0.0999946119263768	0.100012165959924
12605	100	85	0	85	2	2	0	1	1	3	1	22.5	67.5	-0.156218195468432	-1.89155399465967	0.266666666666667	1	0.842180574312806	1	220.225446360651	220.32544536097	0.0999990003183484	0.266674322541803
12659	100	86	0	86	2	2	0	1	1	3	2	157.5	22.5	2.68636953620149	1.33593176901103	0.116666666666667	0	0	0	220.442121914122	220.542096289806	0.0999743756838143	0.116676553152502
12755	100	87	0	87	2	2	0	1	1	0	1	22.5	157.5	1.97614838316589	3.04434067406297	0.283333333333333	0	0	0	220.825455966406	220.925467888825	0.100011922419071	0.283359676599503
12817.5	100	88	0	88	2	2	0	1	1	0	1	22.5	67.5	2.05989968971123	2.08070872437007	0.15	0	0	0	221.075496377889	221.175452711526	0.0999563336372375	0.150028489064425
12905	100	89	0	89	2	2	0	1	1	0	2	67.5	22.5	-0.158822206370715	2.13392699685621	0.25	0	0	0	221.425497755408	221.525483346544	0.0999855911359191	0.250045043881983
12980	100	90	0	90	2	2	0	1	1	0	1	112.5	67.5	-1.77370032075529	1.03414377549544	0.2	0	0	0	221.725504509173	221.825489612296	0.09998510312289	0.200021162629128
13075.75	100	91	0	91	2	2	0	1	1	0	2	157.5	112.5	-1.71917742509419	-1.87009793126866	0.283333333333333	0	0	0	222.108852215111	222.20883049164	0.0999782765284181	0.283362602815032
13155	100	92	0	92	2	2	0	1	1	0	1	112.5	67.5	2.62860333840117	2.88073980747546	0.216666666666667	0	0	0	222.425521648955	222.525488954037	0.0999673050828278	0.216691157314926
13234.25	100	93	0	93	2	2	0	1	1	0	2	157.5	112.5	-2.95518614393425	-0.866042843415975	0.216666666666667	0	0	0	222.742193764541	222.842177892569	0.0999841280281544	0.21670481050387
13334	100	94	0	94	2	2	0	1	1	0	1	112.5	157.5	-1.64354975628971	2.92945567197034	0.3	0	0	0	223.142192448024	223.242194618098	0.100002170074731	0.300014555454254
13417.5	100	95	0	95	2	2	0	1	1	0	1	22.5	157.5	0.332543136710512	1.04030216577292	0.233333333333333	0	0	0	223.475530901458	223.575511616189	0.0999807147309184	0.233336283359677
13500.75	100	96	0	96	2	2	0	1	1	0	1	22.5	67.5	2.03624214382688	2.62903571121124	0.233333333333333	0	0	0	223.808894954622	223.908850069623	0.0999551150016487	0.233383338432759
13555	100	97	0	97	2	2	0	1	1	0	1	112.5	157.5	1.68885318496686	-1.21817366849863	0.116666666666667	0	0	0	224.025540031958	224.125522209797	0.0999821778386831	0.116689962334931
13613.25	100	98	0	98	2	2	0	1	1	0	2	67.5	22.5	0.890206673897723	-2.6066732130416	0.133333333333333	0	0	0	224.258907279465	224.358892138582	0.0999848591163754	0.133385069668293
13675.75	100	99	0	99	2	2	0	1	1	0	2	67.5	112.5	-0.54725590481869	0.799816285325504	0.15	0	0	0	224.508915020153	224.608880862594	0.0999658424407244	0.150022881571203
13738.25	100	100	0	100	2	2	0	1	1	0	1	22.5	157.5	-1.58181416099952	2.51782967785557	0.15	0	0	0	224.758918128908	224.858903232031	0.09998510312289	0.15003726631403
13838.25	100	101	0	101	2	2	0	1	1	0	2	67.5	22.5	-1.42109582185144	0.81220338927136	0.3	0	0	0	225.158931441139	225.25890825456	0.0999768134206533	0.300028209108859
13934.25	100	102	0	102	2	2	0	1	1	0	2	157.5	22.5	-1.30538026850811	-0.586414436455507	0.283333333333333	0	0	0	225.542276464868	225.642255472951	0.0999790080823004	0.283368210308254
14021.75	100	103	0	103	2	2	0	1	1	0	2	67.5	112.5	-2.04731048668965	-0.500306142278311	0.25	0	0	0	225.892285156529	225.992268309463	0.0999831529334188	0.250029683578759
14088.25	100	104	0	104	2	2	0	1	1	0	1	112.5	67.5	-0.317004135873581	2.80139240398189	0.166666666666667	0	0	0	226.158941924572	226.258940437343	0.0999985127709806	0.166673615109175
14175.75	100	105	0	105	2	2	0	1	1	0	2	157.5	112.5	0.983616462542184	0.543247920474121	0.25	0	0	0	226.508939888794	226.608924504369	0.0999846155755222	0.249999451451004
14230	100	106	0	106	2	2	0	1	1	0	2	157.5	22.5	2.91620761936314	2.49582234408579	0.116666666666667	0	0	0	226.725614223629	226.825605178252	0.0999909546226263	0.116689719259739
14300.75	100	107	0	107	2	2	0	1	1	0	2	67.5	22.5	-1.47621629596708	1.27603729057717	0.183333333333333	0	0	0	227.008961222135	227.10896363575	0.100002413615584	0.183356043882668
14359.25	100	108	0	108	2	2	0	1	1	0	1	22.5	157.5	-2.73697671305043	-1.58085763405316	0.133333333333333	0	0	0	227.242323837243	227.342305039521	0.0999812022782862	0.133360201492906
14450.75	100	109	0	109	2	2	0	1	1	0	2	67.5	22.5	1.38387817614542	-1.26630295336703	0.266666666666667	0	0	0	227.608982287347	227.708968853578	0.0999865662306547	0.26667724782601
14538.25	100	110	0	110	2	2	0	1	1	0	1	22.5	157.5	-0.160411131867375	2.85218950998438	0.25	0	0	0	227.959007070865	228.05899339309	0.0999863222241402	0.250038217287511
14625.75	100	111	0	111	2	2	0	1	1	0	1	112.5	67.5	2.55426786126176	3.02537207186727	0.25	0	0	0	228.309015762527	228.408999646548	0.0999838840216398	0.25002236943692
14700.75	100	112	0	112	2	2	0	1	1	0	1	112.5	157.5	-0.705697365981793	2.95261014802296	0.2	0	0	0	228.60902617313	228.70900883805	0.0999826649203897	0.200026526581496
14755	100	113	0	113	2	2	0	1	1	0	1	22.5	67.5	1.11449719801555	-2.09573228629007	0.116666666666667	0	0	0	228.825696362648	228.925674639642	0.0999782769940794	0.116687524598092
14813.25	100	114	0	114	2	2	0	1	1	0	2	67.5	112.5	0.137652154083403	0.650510487782792	0.133333333333333	0	0	0	229.059035815764	229.159003852401	0.0999680366367102	0.13336117612198
14867.5	100	115	0	115	2	2	0	1	1	0	1	112.5	67.5	-2.12609285888578	0.860935507391255	0.116666666666667	0	0	0	229.275713563431	229.37569281552	0.099979252088815	0.116709711030126
14930	100	116	0	116	2	2	0	1	1	0	2	157.5	22.5	3.08369900126998	-1.00990743904023	0.15	0	0	0	229.525703750085	229.625675931573	0.0999721814878285	0.150010934565216
15021.75	100	117	0	117	2	2	0	1	1	0	1	22.5	157.5	-1.03052878910635	-1.46444177167269	0.266666666666667	0	0	0	229.892393895891	229.992375585716	0.099981689825654	0.26671796431765
15113.25	100	118	0	118	2	2	0	1	1	0	2	157.5	112.5	-1.81230543955999	-3.03204863647906	0.266666666666667	0	0	0	230.259069656488	230.359051834326	0.0999821778386831	0.266694070771337
15184.25	100	119	0	119	2	2	0	1	1	0	2	157.5	112.5	1.53552698964365	-0.999786372304509	0.183333333333333	0	0	0	230.542398857418	230.642394931987	0.0999960745684803	0.18334702309221
15255	100	120	0	120	2	2	0	1	1	0	1	112.5	157.5	-0.101505154497209	1.75938460073298	0.183333333333333	0	0	0	230.825748050585	230.925736811012	0.0999887604266405	0.183353118598461
15305	100	121	0	121	2	2	0	1	1	0	2	67.5	22.5	-2.37523828428872	1.11311249921729	0.1	0	0	0	231.025756291114	231.125740419142	0.0999841280281544	0.100019480101764
15371.75	100	122	0	122	2	2	0	1	1	0	2	67.5	112.5	1.94236294283088	2.2846946839065	0.166666666666667	0	0	0	231.292433539405	231.392413522583	0.099979983177036	0.166693120263517
15425.75	100	123	0	123	2	2	0	1	1	0	2	67.5	22.5	0.865658781563353	-1.29096118929951	0.116666666666667	0	0	0	231.509090075735	231.60905981902	0.0999697432853281	0.116676553152502
15505	100	124	0	124	2	2	0	1	1	3	1	22.5	67.5	2.55269473537743	-0.809528990115696	0.216666666666667	0	0	0	231.825748782139	231.92576509295	0.100016310811043	0.216688963118941
15575.75	100	125	0	125	2	2	0	1	1	3	1	22.5	157.5	0.0679584837555618	0.172079163691099	0.183333333333333	0	0	0	232.109123819042	232.209085028619	0.0999612095765769	0.183358726091683
15630	100	126	0	126	2	2	0	1	1	3	2	67.5	22.5	1.27516147587195	-1.41797472538988	0.116666666666667	0	0	0	232.325766945723	232.425747903995	0.0999809582717717	0.11668191710487
15692.5	100	127	0	127	2	2	0	1	1	3	1	112.5	67.5	1.22234479301394	2.47069454447335	0.15	0	0	0	232.575769078918	232.675757107791	0.0999880288727582	0.150021174922585
16959.25	100	128	1	0	2	1	90	1	1	3	1	22.5	67.5	1.53619655476585	-1.7165354257565	0.133333333333333	0	0	0	237.642578520812	237.742555578239	0.0999770574271679	-1
17059.25	100	129	1	1	2	1	90	1	1	3	1	22.5	157.5	-1.49938218867346	2.77018007888743	0.3	0	0	0	238.042640594766	238.142595709302	0.0999551145359874	0.300085016526282
17130	100	130	1	2	2	1	90	1	1	3	2	67.5	112.5	2.96945506874496	-0.902788474823751	0.183333333333333	0	0	0	238.325954191387	238.425934906118	0.0999807147309184	0.183358482085168
17221.75	100	131	1	3	2	1	90	1	1	3	2	157.5	22.5	-1.50287930985923	1.77207626176012	0.266666666666667	0	0	0	238.692634340841	238.792616030667	0.099981689825654	0.266699434723705
17276	100	132	1	4	2	1	90	1	1	0	1	112.5	67.5	-0.0481722631912516	-2.61019307720512	0.116666666666667	0	0	0	238.909301361069	239.00928500155	0.0999836404807866	0.116685330402106
17342.5	100	133	1	5	2	1	90	1	1	0	1	22.5	67.5	0.284145138340277	1.88686226353928	0.166666666666667	0	0	0	239.175977389794	239.275945670437	0.0999682806432247	0.166692388243973
17396.75	100	134	1	6	2	1	90	1	1	0	2	157.5	22.5	0.131676282981024	-1.42753041513874	0.116666666666667	0	0	0	239.392650749069	239.492614884861	0.0999641357921064	0.116705078631639
17476	100	135	1	7	2	1	90	1	1	0	1	112.5	67.5	1.34030336622392	1.02504162805911	0.216666666666667	0	0	0	239.709322133567	239.809308455791	0.0999863222241402	0.216707248706371
17559.25	100	136	1	8	2	1	90	1	1	0	2	67.5	112.5	0.0523899323570607	-1.32174031286617	0.233333333333333	0	0	0	240.042660099454	240.142649347428	0.0999892479740083	0.2333516436629
17638.5	100	137	1	9	2	1	90	1	1	0	2	67.5	112.5	1.93251548664215	1.4592835717638	0.216666666666667	0	0	0	240.359315148555	240.459307322279	0.0999921737238765	0.21666580112651
17688.5	100	138	1	10	2	1	90	1	1	0	2	67.5	22.5	0.507071916691225	1.26235166704086	0.1	0	0	0	240.559348501731	240.659316050354	0.0999675486236811	0.100041179452091
17759.25	100	139	1	11	2	1	90	1	1	0	1	112.5	157.5	2.87035811611948	3.04664218545349	0.183333333333333	0	0	0	240.842685991898	240.942668169271	0.0999821773730218	0.183369941543788
17826	100	140	1	12	2	1	90	1	1	0	1	112.5	67.5	2.13521569500699	-1.87385403770378	0.166666666666667	0	0	0	241.109358363785	241.209319817368	0.0999614535830915	0.166690194513649
17905	100	141	1	13	2	1	90	1	1	0	1	22.5	157.5	2.44401512147429	-0.51809852646906	0.216666666666667	0	0	0	241.42604096327	241.526022409555	0.0999814462848008	0.216721145901829
17963.5	100	142	1	14	2	1	90	1	1	0	1	112.5	157.5	2.77753106442703	2.47278793869618	0.133333333333333	0	0	0	241.659360180143	241.75934308907	0.0999829089269042	0.133337770588696
18034.25	100	143	1	15	2	1	90	1	1	0	2	67.5	112.5	0.961791746043994	0.825222786271503	0.183333333333333	0	0	0	241.942717906553	242.042700327933	0.0999824213795364	0.183374817483127
18121.75	100	144	1	16	2	1	90	1	1	0	2	67.5	22.5	-0.486072371797826	-2.51057081335999	0.25	0	0	0	242.292725379579	242.3927092636	0.0999838840216398	0.250025051645935
18196.75	100	145	1	17	2	1	90	1	1	0	1	22.5	67.5	-2.01181612828775	-2.50683680508628	0.2	0	0	0	242.592738959473	242.692701388616	0.0999624291434884	0.200029695872217
18267.5	100	146	1	18	2	1	90	1	1	0	1	112.5	67.5	-1.60315229202761	0.587869566560625	0.183333333333333	0	0	0	242.876078156289	242.976057895925	0.0999797396361828	0.183376767672598
18355	100	147	1	19	2	1	90	1	1	0	1	22.5	157.5	-0.0227815961187301	-2.2916265076269	0.25	0	0	0	243.226087091956	243.326068538241	0.0999814462848008	0.250029196031392
18451	100	148	1	20	2	1	90	1	1	0	1	22.5	157.5	1.62990664562955	-2.67232143198173	0.283333333333333	0	0	0	243.609429434408	243.709410636686	0.0999812022782862	0.283360896166414
18551	100	149	1	21	2	1	90	1	1	0	2	157.5	112.5	-0.129464960722949	-0.294882744147844	0.3	0	0	0	244.00944006443	244.109428824857	0.0999887604266405	0.300029427744448
18651	100	150	1	22	2	1	90	1	1	0	1	22.5	67.5	-2.81280735879506	-1.323540860734	0.3	0	0	0	244.409454351757	244.509417511988	0.0999631602317095	0.300025526899844
18709.25	100	151	1	23	2	1	90	1	1	0	1	22.5	157.5	-1.33591864722007	-0.159093745543898	0.133333333333333	0	0	0	244.642792097759	244.742772812489	0.0999807147309184	0.133374585770071
18763.5	100	152	1	24	2	1	90	1	1	0	2	67.5	112.5	0.285220825247532	-0.103092463616871	0.116666666666667	0	0	0	244.859458386432	244.959441295359	0.0999829089269042	0.116685573942959
18821.75	100	153	1	25	2	1	90	1	1	0	2	67.5	22.5	-2.02955194352427	1.00386398589153	0.133333333333333	0	0	0	245.092801009305	245.192769289482	0.0999682801775634	0.133359713945538
18876	100	154	1	26	2	1	90	1	1	0	1	112.5	157.5	2.44013844534186	-2.13465120381007	0.116666666666667	0	0	0	245.30947753787	245.409460690804	0.0999831529334188	0.116708248388022
18955	100	155	1	27	2	1	90	1	1	0	1	22.5	67.5	-1.2152055988887	2.69892754560358	0.216666666666667	0	0	0	245.626150385011	245.726135000587	0.0999846155755222	0.216689694207162
19051	100	156	1	28	2	1	90	1	1	0	2	157.5	22.5	-2.43285617685192	-2.64000167001102	0.283333333333333	0	0	0	246.009493946098	246.109479780775	0.0999858346767724	0.283358945511281
19113.5	100	157	1	29	2	1	90	1	1	0	1	22.5	157.5	2.60382848670338	1.87949897647203	0.15	0	0	0	246.259501199704	246.35948605882	0.0999848591163754	0.1500214189291
19163.5	100	158	1	30	2	1	90	1	1	0	2	67.5	112.5	-0.249964909811744	-0.556304875010195	0.1	0	0	0	246.45950797759	246.55948771676	0.0999797391705215	0.100021918769926
19234.25	100	159	1	31	2	1	90	1	1	0	1	22.5	157.5	-1.8319885891211	-0.22491239184739	0.183333333333333	0	0	0	246.742847418413	246.84283057088	0.0999831524677575	0.18335970165208
19305	100	160	1	32	2	1	90	1	1	0	2	157.5	112.5	-2.55875005606822	0.510564119789075	0.183333333333333	0	0	0	247.026188077871	247.126150507014	0.0999624291434884	0.183357506990433
19380	100	161	1	33	2	1	90	1	1	0	1	112.5	67.5	0.157671037160167	-0.651068331610866	0.2	0	0	0	247.326169718988	247.426153115928	0.0999833969399333	0.200019211973995
19438.5	100	162	1	34	2	1	90	1	1	0	1	22.5	67.5	2.74798194030756	-0.204324841156959	0.133333333333333	0	0	0	247.559513560962	247.659495006781	0.0999814458191395	0.133360445033759
19521.75	100	163	1	35	2	1	90	1	1	0	2	157.5	22.5	-1.16097234874848	2.96862768782756	0.233333333333333	0	0	0	247.892849088181	247.992836873513	0.0999877853319049	0.233354081399739
19613.5	100	164	1	36	2	1	90	1	1	0	2	67.5	112.5	-0.864908329673903	0.611348221108814	0.266666666666667	0	0	0	248.259552887175	248.359538721852	0.0999858346767724	0.266716013662517
19667.5	100	165	1	37	2	1	90	1	1	0	2	67.5	22.5	2.27261329856884	0.323091626779589	0.116666666666667	0	0	0	248.476230878849	248.576215250883	0.0999843720346689	0.116692156996578
19763.5	100	166	1	38	2	1	90	1	1	0	1	22.5	67.5	0.920238554854801	-1.51019821138807	0.283333333333333	0	0	0	248.859568832442	248.959549059626	0.0999802271835506	0.283353581558913
19851	100	167	1	39	2	1	90	1	1	0	2	67.5	112.5	1.72818715153533	2.7860168665377	0.25	0	0	0	249.209581424948	249.309542147443	0.0999607224948704	0.250032365322113
19909.25	100	168	1	40	2	1	90	1	1	0	2	157.5	112.5	-3.12734304463451	1.03357139472522	0.133333333333333	0	0	0	249.442918927409	249.542902811896	0.0999838844873011	0.133376779966056
20001	100	169	1	41	2	1	90	1	1	0	1	22.5	67.5	2.26337452931635	-1.21757536834989	0.266666666666667	0	0	0	249.809582253918	249.909579547588	0.0999972936697304	0.266679442021996
20055	100	170	1	42	2	1	90	1	1	0	2	157.5	112.5	3.07073482036214	2.91943112497968	0.116666666666667	0	0	0	250.026271461044	250.126258514822	0.0999870537780225	0.116691913455725
20130	100	171	1	43	2	1	90	1	1	0	2	67.5	112.5	-0.726462572321681	-1.47501014740107	0.2	0	0	0	250.326277239248	250.426235035993	0.0999577967450023	0.200018724426627
20201	100	172	1	44	2	1	90	1	1	3	1	112.5	67.5	1.94612105834502	2.80826192886503	0.183333333333333	0	0	0	250.609587179031	250.709574720357	0.0999875413253903	0.183352143038064
20263.5	100	173	1	45	2	1	90	1	1	3	1	22.5	157.5	-2.36043596211899	2.82139139311362	0.15	0	0	0	250.859595407732	250.959582705051	0.0999872973188758	0.150020687375218
20330	100	174	1	46	2	1	90	1	1	3	2	157.5	22.5	-1.5588108030079	1.93436754522653	0.166666666666667	0	0	0	251.12627801951	251.226252151188	0.0999741316772997	0.166695314459503
20417.75	100	175	1	47	2	1	90	1	1	2	-1	45	90	2.64123195354769	-1.3385113886848	0.25	0	0	0	251.476308410522	251.576290343888	0.0999819333665073	0.250056259334087
20496.75	100	176	1	48	2	1	90	1	1	3	1	22.5	67.5	-1.74668204396905	2.81557972223727	0.216666666666667	0	0	0	251.792953463271	251.892936616205	0.0999831529334188	0.216663119383156
20592.75	100	177	1	49	2	1	90	1	1	3	2	157.5	112.5	-0.755925045167241	0.0260133437637711	0.283333333333333	0	0	0	252.176308483351	252.27628090838	0.0999724250286818	0.283371867146343
20684.25	100	178	1	50	2	1	90	1	1	3	2	67.5	22.5	-1.14458143485676	-3.07699285320436	0.266666666666667	0	0	0	252.542979124002	252.642962520942	0.0999833969399333	0.266698215622455
20784.25	100	179	1	51	2	1	90	1	1	3	2	67.5	112.5	-2.2148812701785	-0.212835834313168	0.3	0	0	0	252.943009015173	253.042995337397	0.0999863222241402	0.300046494230628
20867.75	100	180	1	52	2	1	90	1	1	0	1	112.5	157.5	2.53883622538213	0.232818146512439	0.233333333333333	0	0	0	253.276340154465	253.376316967886	0.0999768134206533	0.233344817068428
20942.75	100	181	1	53	2	1	90	1	1	0	2	157.5	22.5	-2.61522288768155	-0.546831080049922	0.2	0	0	0	253.576365924906	253.676347614732	0.099981689825654	0.200048957020044
20992.75	100	182	1	54	2	1	90	1	1	0	1	22.5	157.5	2.83565763204438	-3.09299893101981	0.1	0	0	0	253.776371971704	253.876338545233	0.0999665735289454	0.100024356972426
21055.25	100	183	1	55	2	1	90	1	1	0	2	157.5	112.5	-1.01283978494379	-2.14151088668829	0.15	0	0	0	254.026375324	254.126362377778	0.0999870537780225	0.150036778766662
21142.75	100	184	1	56	2	1	90	1	1	0	1	22.5	67.5	1.01917889297739	-1.73384553459859	0.25	0	0	0	254.376394255552	254.476374970283	0.0999807147309184	0.250031877774745
21217.75	100	185	1	57	2	1	90	1	1	0	1	112.5	157.5	-1.00587295434202	-1.05222985395571	0.2	0	0	0	254.676394913811	254.776378310751	0.0999833969399333	0.200019943527877
21284.25	100	186	1	58	2	1	90	1	1	0	2	157.5	112.5	-1.30141780203898	-1.50930935749665	0.166666666666667	0	0	0	254.943065823056	255.043046049774	0.0999802267178893	0.166687512304634
21363.5	100	187	1	59	2	1	90	1	1	0	2	157.5	112.5	0.620578588469073	0.577332214578671	0.216666666666667	0	0	0	255.2597423275	255.359700123779	0.099957796279341	0.216696277726442
21446.75	100	188	1	60	2	1	90	1	1	0	2	157.5	112.5	2.71057350722278	1.83819300394011	0.233333333333333	0	0	0	255.593058106489	255.693039308768	0.0999812022782862	0.233357982710004
21509.25	100	189	1	61	2	1	90	1	1	0	1	22.5	67.5	0.843956409749262	0.565910210176917	0.15	0	0	0	255.843069992028	255.943051194306	0.0999812022782862	0.150030683260411
21580.25	100	190	1	62	2	1	90	1	1	0	2	157.5	22.5	-1.83273003547621	0.0862049581881466	0.183333333333333	0	0	0	256.126442347188	256.226417210419	0.0999748632311821	0.183391152881086
21655.25	100	191	1	63	2	1	90	1	1	0	2	157.5	112.5	0.734247046234318	-1.70969384572915	0.2	0	0	0	256.426448369399	256.526405190583	0.0999568211846054	0.200031158979982
21705.25	100	192	1	64	2	1	90	1	1	0	1	112.5	67.5	1.11736185324959	-0.423113554949699	0.1	0	0	0	256.62644441938	256.726428791415	0.0999843720346689	0.100039228796959
21767.75	100	193	1	65	2	1	90	1	1	0	1	112.5	157.5	3.03221814946264	-1.16178557614161	0.15	0	0	0	256.876445089933	256.976444577798	0.0999994878657162	0.150016298517585
21834.25	100	194	1	66	2	1	90	1	1	0	2	157.5	22.5	-0.683404966089886	-0.62456082250258	0.166666666666667	0	0	0	257.143131846562	257.243098664097	0.09996681753546	0.166687268763781
21926	100	195	1	67	2	1	90	1	1	0	1	112.5	157.5	2.55356500702718	-1.35602150743771	0.266666666666667	0	0	0	257.509804193862	257.609785883687	0.099981689825654	0.266705529764295
22017.75	100	196	1	68	2	1	90	1	1	0	1	112.5	67.5	-0.244165198675747	2.9820482913004	0.266666666666667	0	0	0	257.876481661573	257.976462132297	0.0999804707244039	0.266695777885616
22113.5	100	197	1	69	2	1	90	1	1	0	2	157.5	112.5	3.08540081656751	0.255578438203288	0.283333333333333	0	0	0	258.259829367511	258.359814714175	0.0999853466637433	0.283367235213518
22196.75	100	198	1	70	2	1	90	1	1	0	1	22.5	157.5	0.332991048006635	-0.551944830802524	0.233333333333333	0	0	0	258.593173915986	258.693136344664	0.0999624286778271	0.233359201811254
22284.25	100	199	1	71	2	1	90	1	1	0	2	157.5	112.5	-1.41026225571472	2.62168972831696	0.25	0	0	0	258.943163102958	259.043164053932	0.100000950973481	0.250026758294553
22384.25	100	200	1	72	2	1	90	1	1	0	1	112.5	157.5	1.35769871001215	0.592067322599179	0.3	0	0	0	259.34319713898	259.443176390603	0.0999792516231537	0.300033085048199
22484.25	100	201	1	73	2	1	90	1	1	0	2	67.5	112.5	2.63896749637372	2.2475487770612	0.3	0	0	0	259.743203136604	259.843172391877	0.0999692552722991	0.300026746001095
22580.25	100	202	1	74	2	1	90	1	1	0	1	112.5	67.5	-2.22214883866419	1.94480049854348	0.283333333333333	0	0	0	260.126549866982	260.226529606618	0.0999797396361828	0.283377475105226
22680.25	100	203	1	75	2	1	90	1	1	0	1	112.5	67.5	-0.764403613096604	2.90688745712932	0.3	0	0	0	260.52655757172	260.626539017539	0.0999814458191395	0.300027965102345
22771.75	100	204	1	76	2	1	90	1	1	0	1	22.5	157.5	-0.148102581287521	-1.43527124725424	0.266666666666667	0	0	0	260.893229431473	260.993213071954	0.0999836404807866	0.266690413933247
22863.5	100	205	1	77	2	1	90	1	1	0	2	157.5	22.5	2.64294661275534	1.05824174527209	0.266666666666667	0	0	0	261.259912506212	261.359874935355	0.0999624291434884	0.266699434258044
22930.25	100	206	1	78	2	1	90	1	1	0	1	22.5	157.5	2.59235779370144	2.46331919300653	0.166666666666667	0	0	0	261.526588047855	261.626570712775	0.0999826649203897	0.166713112499565
22992.75	100	207	1	79	2	1	90	1	1	0	2	67.5	22.5	-1.58004177186599	-0.652404713615404	0.15	0	0	0	261.776591887698	261.876574796624	0.0999829089269042	0.150021174922585
23046.75	100	208	1	80	2	1	90	1	1	0	1	22.5	67.5	0.909055785653581	2.46377352143866	0.116666666666667	0	0	0	261.993265002966	262.093228894752	0.0999638917855918	0.116690206341445
23113.5	100	209	1	81	2	1	90	1	1	0	2	67.5	22.5	0.945887464269157	-2.7107253404827	0.166666666666667	0	0	0	262.2599378624	262.359901998192	0.0999641357921064	0.166708967648447
23205.25	100	210	1	82	2	1	90	1	1	0	2	157.5	112.5	0.441527251370017	-2.63160902484759	0.266666666666667	0	0	0	262.6266231318	262.726601408329	0.0999782765284181	0.266721133608371
23267.75	100	211	1	83	2	1	90	1	1	0	2	67.5	112.5	-2.80770516838296	-1.82236155452711	0.15	0	0	0	262.876608442515	262.976582330652	0.0999738881364465	0.150007034186274
23334.25	100	212	1	84	2	1	90	1	1	0	2	67.5	112.5	-0.504641178255892	-1.04428567163326	0.166666666666667	0	0	0	263.143293492496	263.243265185971	0.0999716934747994	0.166711161844432
23384.25	100	213	1	85	2	1	90	1	1	0	1	22.5	67.5	2.56916059921222	-1.66881562057574	0.1	0	0	0	263.343301001471	263.443282691762	0.0999816902913153	0.100035815499723
23446.75	100	214	1	86	2	1	90	1	1	0	1	112.5	67.5	-1.43396098364708	-1.4968288667483	0.15	0	0	0	263.593307523523	263.693268489558	0.0999609660357237	0.150024831760675
23521.75	100	215	1	87	2	1	90	1	1	0	2	67.5	22.5	2.7708953541307	0.195543247512037	0.2	0	0	0	263.893316715024	263.993296698667	0.0999799836426973	0.200048225466162
23617.75	100	216	1	88	2	1	90	1	1	0	1	112.5	157.5	1.67870084944651	0.567930199858142	0.283333333333333	0	0	0	264.276637358125	264.376644892152	0.1000075340271	0.28334065945819
23676	100	217	1	89	2	1	90	1	1	0	2	157.5	22.5	-0.645510058114968	-1.21014226808844	0.133333333333333	0	0	0	264.509998266585	264.609982150607	0.0999838840216398	0.133353374432772
23755.25	100	218	1	90	2	1	90	1	1	0	1	112.5	157.5	-1.69275714186006	2.47880715950875	0.216666666666667	0	0	0	264.826659167185	264.926657679956	0.0999985127709806	0.216677016578615
23830.25	100	219	1	91	2	1	90	1	1	0	1	22.5	157.5	-1.84760081277143	3.07130390575102	0.2	0	0	0	265.126670065336	265.226640052162	0.0999699868261814	0.200012385379523
23926	100	220	1	92	2	1	90	1	1	0	2	67.5	22.5	2.33641678430126	2.97591995621955	0.283333333333333	0	0	0	265.510005824734	265.609993122052	0.0999872973188758	0.283365772571415
23997	100	221	1	93	2	1	90	1	1	0	1	22.5	67.5	0.726640796629872	1.40171190491901	0.183333333333333	0	0	0	265.793347459752	265.893328174483	0.0999807147309184	0.183354337699711
24080.25	100	222	1	94	2	1	90	1	1	0	2	67.5	22.5	2.05284036008937	2.88175687882701	0.233333333333333	0	0	0	266.126714682672	266.226691740099	0.0999770574271679	0.233386508189142
24130.25	100	223	1	95	2	1	90	1	1	0	2	157.5	22.5	-0.502533840474994	1.54246104990873	0.1	0	0	0	266.326716584153	266.426697054878	0.0999804707244039	0.100024844054133
24217.75	100	224	1	96	2	1	90	1	1	0	1	112.5	67.5	0.877337482450411	2.71174135370045	0.25	0	0	0	266.676723081619	266.776706478093	0.099983396474272	0.25002602674067
24267.75	100	225	1	97	2	1	90	1	1	0	2	157.5	112.5	-1.09054105046256	-0.0569599535357881	0.1	0	0	0	266.876725227106	266.976705210283	0.099979983177036	0.100018749013543
24359.5	100	226	1	98	2	1	90	1	1	0	2	67.5	22.5	-2.12894195497999	2.9742984904575	0.266666666666667	0	0	0	267.243406108115	267.3433699999	0.0999638917855918	0.26670089783147
24426	100	227	1	99	2	1	90	1	1	0	1	112.5	157.5	-0.252236996378998	-3.0208773576435	0.166666666666667	0	0	0	267.5100643388	267.610041152686	0.0999768138863146	0.166694338899106
24513.5	100	228	1	100	2	1	90	1	1	0	2	157.5	22.5	-1.86623494744447	1.34536931029881	0.25	0	0	0	267.860092291608	267.960070812143	0.0999785205349326	0.250051138922572
24576	100	229	1	101	2	1	90	1	1	0	2	157.5	22.5	-0.157136235351103	1.1713213824663	0.15	0	0	0	268.110080284066	268.210038080346	0.099957796279341	0.150009471923113
24630.25	100	230	1	102	2	1	90	1	1	3	1	112.5	157.5	-0.9456753431629	-2.39085888881316	0.116666666666667	0	0	0	268.326782168821	268.426752399653	0.099970230832696	0.116744088474661
24722	100	231	1	103	2	1	90	1	1	3	1	22.5	157.5	-2.0543094374898	2.00255134225555	0.266666666666667	0	0	0	268.693428428844	268.793410118669	0.099981689825654	0.266676029190421
24822	100	232	1	104	2	1	90	1	1	3	2	157.5	112.5	-1.21788278182524	-0.8176535216771	0.3	0	0	0	269.093440033961	269.193420017138	0.099979983177036	0.300029915291816
24897	100	233	1	105	2	1	90	1	1	1	-1	90	135	2.47675594639706	2.57792839739602	0.2	0	0	0	269.393445568625	269.493429696653	0.0999841280281544	0.20002555148676
24955.25	100	234	1	106	2	1	90	1	1	3	2	67.5	22.5	2.37259001311788	3.08403671123803	0.133333333333333	0	0	0	269.626806964632	269.726788897999	0.0999819333665073	0.133377267979085
25022	100	235	1	107	2	1	90	1	1	3	2	67.5	112.5	2.31021730758581	-0.372271896037537	0.166666666666667	0	0	0	269.893463976216	269.993447860237	0.0999838840216398	0.16667507821694
25105.25	100	236	1	108	2	1	90	1	1	3	1	112.5	67.5	-1.76783992746084	3.06103206362928	0.233333333333333	0	0	0	270.226817545947	270.326803136617	0.0999855906702578	0.233369685709476
25155.25	100	237	1	109	2	1	90	1	1	3	1	22.5	67.5	-0.256647844774744	-2.14026881035332	0.1	0	0	0	270.426827005576	270.526806744747	0.0999797391705215	0.100023868959397
25213.5	100	238	1	110	2	1	90	1	1	0	2	67.5	112.5	1.06464483665616	-1.76247718622288	0.133333333333333	0	0	0	270.660165239591	270.760148879606	0.0999836400151253	0.133358494844288
25301	100	239	1	111	2	1	90	1	1	0	1	112.5	157.5	-2.06254696657559	2.30479297618014	0.25	0	0	0	271.010173687246	271.110158790834	0.0999851035885513	0.25002480763942
25372	100	240	1	112	2	1	90	1	1	0	2	67.5	22.5	-0.692129554448516	1.66761153520541	0.183333333333333	0	0	0	271.293515078723	271.393501157407	0.0999860786832869	0.183356287889183
25472	100	241	1	113	2	1	90	1	1	0	2	67.5	22.5	1.68320902509884	-1.24225989487309	0.3	0	0	0	271.693526196294	271.793511299882	0.0999851035885513	0.300025038886815
25555.25	100	242	1	114	2	1	90	1	1	0	1	112.5	67.5	2.86402657525901	-0.538964229833089	0.233333333333333	0	0	0	272.026871232782	272.12685243506	0.0999812022782862	0.233359932899475
25605.25	100	243	1	115	2	1	90	1	1	0	1	112.5	157.5	-2.21298046427366	-0.477593431055233	0.1	0	0	0	272.226877279114	272.326836050954	0.0999587718397379	0.100024844054133
25701	100	244	1	116	2	1	90	1	1	0	2	67.5	112.5	0.0354535184525413	1.39354096254394	0.283333333333333	0	0	0	272.610198165756	272.710180343594	0.0999821778386831	0.283362114802003
25784.5	100	245	1	117	2	1	90	1	1	0	1	22.5	67.5	-0.0258328930464491	-2.90675781196889	0.233333333333333	0	0	0	272.943555148784	273.043535131961	0.099979983177036	0.233374805189669
25838.5	100	246	1	118	2	1	90	1	1	0	1	22.5	157.5	-0.40533869721412	0.397887568862477	0.116666666666667	0	0	0	273.160232408904	273.260202883743	0.0999704748392105	0.116697276942432
25897	100	247	1	119	2	1	90	1	1	0	1	112.5	67.5	2.37448500138898	1.14902049494437	0.133333333333333	0	0	0	273.39357503131	273.493555258494	0.0999802271835506	0.13337214756757
25997	100	248	1	120	2	1	90	1	1	0	2	157.5	22.5	-3.04605847270345	1.42063777117249	0.3	0	0	0	273.793584686238	273.89356662007	0.0999819338321686	0.300029427744448
26076	100	249	1	121	2	1	90	1	1	0	2	157.5	22.5	2.00924545320753	-2.73696138948727	0.216666666666667	0	0	0	274.110264360439	274.210241661407	0.0999773009680212	0.216697740368545
26155.25	100	250	1	122	2	1	90	1	1	0	2	67.5	22.5	2.09207986611785	-1.60649538238809	0.216666666666667	0	0	0	274.426933550276	274.526916459203	0.0999829089269042	0.216691888868809
26255.25	100	251	1	123	2	1	90	1	1	0	1	22.5	157.5	-0.782944352461297	-1.64964353840181	0.3	0	0	0	274.82694832515	274.926926601678	0.0999782765284181	0.300031865946949
26305.25	100	252	1	124	2	1	90	1	1	3	2	157.5	112.5	1.59411726818477	-0.415276465465761	0.1	0	0	0	275.026950714644	275.12693533022	0.0999846155755222	0.100024112965912
26372	100	253	1	125	2	1	90	1	1	3	2	67.5	22.5	1.72480054621111	1.11243772857233	0.166666666666667	0	0	0	275.29362796247	275.393635252491	0.100007290020585	0.166692632250488
26434.5	100	254	1	126	2	1	90	1	1	3	1	112.5	157.5	-0.536084020921693	0.165420426783532	0.15	0	0	0	275.543635947164	275.643614223693	0.0999782765284181	0.150000694673508
26522	100	255	1	127	2	1	90	1	1	3	1	112.5	67.5	-2.34895951597039	-0.835095914755626	0.25	0	0	0	275.893624403048	275.99362315936	0.0999987563118339	0.250010179355741
27734.5	100	256	2	0	1	1	0	1	1	3	1	112.5	157.5	1.32042362221784	-3.06561760103175	0.2	0	0	0	280.743746588007	280.84373169113	0.09998510312289	-1
27809.5	100	257	2	1	1	1	0	1	1	3	2	67.5	22.5	0.719328763449452	-1.33273505682064	0.2	0	0	0	281.043797958642	281.143731130753	0.0999331721104681	0.200066267512739
27884.5	100	258	2	2	1	1	0	1	1	3	2	157.5	112.5	0.366752965066023	0.967298604440266	0.2	0	0	0	281.343791790307	281.443771529943	0.0999797396361828	0.200060659553856
27959.5	100	259	2	3	1	1	0	1	1	3	2	157.5	22.5	-0.379277176675768	2.90229413011503	0.2	0	0	0	281.643775138073	281.743759266101	0.0999841280281544	0.200003608129919
28034.5	100	260	2	4	1	1	0	1	1	0	2	157.5	22.5	0.103565329219935	1.84184755170653	0.2	0	0	0	281.943790669087	282.043767238967	0.0999765698798001	0.200031402986497
28109.5	100	261	2	5	1	1	0	1	1	0	2	157.5	22.5	1.56436563256548	1.3604907182106	0.2	0	0	0	282.243794253096	282.343756438233	0.0999621851369739	0.200027014128864
28184.5	100	262	2	6	1	1	0	1	1	0	1	22.5	67.5	1.6375304841743	-3.03498025287135	0.2	0	0	0	282.543812709395	282.643791229464	0.0999785200692713	0.200056271161884
28259.5	100	263	2	7	1	1	0	1	1	0	1	22.5	67.5	-1.74019594917786	-3.12319381501161	0.2	0	0	0	282.843796544708	282.94380797958	0.100011434871703	0.200005315244198
28334.5	100	264	2	8	1	1	0	1	1	0	2	157.5	22.5	-2.61472429616687	1.290270093615	0.2	0	0	0	283.143837675452	283.243794009089	0.0999563336372375	0.200029695872217
28409.5	100	265	2	9	1	1	0	1	1	0	2	157.5	112.5	-1.27036856607311	-2.54679076061225	0.2	0	0	0	283.44382541161	283.543809052091	0.0999836404807866	0.200031402520835
28484.5	100	266	2	10	1	1	0	1	1	0	2	157.5	112.5	2.26813944709541	-0.544529447037859	0.2	0	0	0	283.743850694969	283.843838967383	0.0999882724136114	0.200041642878205
28559.5	100	267	2	11	1	1	0	1	1	0	1	112.5	157.5	-0.88826448567449	0.743845052519048	0.2	0	0	0	284.043847452383	284.143843039405	0.0999955870211124	0.200008485000581
28634.5	100	268	2	12	1	1	0	1	1	0	1	22.5	157.5	-0.216544507002859	-2.0679905668215	0.2	0	0	0	284.343870297074	284.443853693549	0.099983396474272	0.200027257669717
28709.5	100	269	2	13	1	1	0	1	1	0	1	112.5	157.5	-0.852526784389099	2.86221028129547	0.2	0	0	0	284.643876806833	284.743860447314	0.0999836404807866	0.20002311328426
28784.5	100	270	2	14	1	1	0	1	1	0	1	22.5	67.5	1.93608130061655	-1.2481787457161	0.2	0	0	0	284.943868687842	285.043846476823	0.0999777889810503	0.200008240528405
28859.5	100	271	2	15	1	1	0	1	1	0	1	22.5	157.5	-3.01985186572225	-1.46115261249752	0.2	0	0	0	285.243870565202	285.34385761898	0.0999870537780225	0.200024088378996
28934.5	100	272	2	16	1	1	0	1	1	0	1	112.5	157.5	2.19758467497741	0.627771305413552	0.2	0	0	0	285.543879269157	285.643861446995	0.0999821778386831	0.200021650176495
29009.5	100	273	2	17	1	1	0	1	1	0	1	112.5	67.5	1.9471883040455	1.25423315065714	0.2	0	0	0	285.843892117962	285.943890630733	0.0999985127709806	0.200030670966953
29084.5	100	274	2	18	1	1	0	1	1	0	2	157.5	112.5	-2.13878967270558	0.681224744104263	0.2	0	0	0	286.143905454315	286.2438986036	0.0999931492842734	0.200014823582023
29159.5	100	275	2	19	1	1	0	1	1	0	2	67.5	22.5	0.211563318319651	0.606687218924943	0.2	0	0	0	286.443930250127	286.543893166352	0.0999629162251949	0.20003164652735
29234.5	100	276	2	20	1	1	0	1	1	0	2	67.5	112.5	1.1504727978696	0.602595813094685	0.2	0	0	0	286.743933102582	286.843902357854	0.0999692552722991	0.200039936229587
29309.5	100	277	2	21	1	1	0	1	1	0	1	112.5	157.5	-1.35816554072559	-1.15838531537975	0.2	0	0	0	287.043933516834	287.143905941863	0.0999724250286818	0.200031158979982
29384.5	100	278	2	22	1	1	0	1	1	0	1	112.5	67.5	-1.33037454331311	1.63355983607039	0.2	0	0	0	287.343954655342	287.443933906965	0.0999792516231537	0.200048713479191
29459.5	100	279	2	23	1	1	0	1	1	0	1	112.5	157.5	0.356141666069057	2.59286472812786	0.2	0	0	0	287.643962140195	287.743943342473	0.0999812022782862	0.200028233230114
29534.5	100	280	2	24	1	1	0	1	1	0	2	67.5	112.5	-1.21545761062843	1.22559710085258	0.2	0	0	0	287.943956703413	288.043930835091	0.0999741316772997	0.20001336093992
29609.5	100	281	2	25	1	1	0	1	1	0	1	112.5	67.5	2.41077183984455	-2.42809858284996	0.2	0	0	0	288.24397272151	288.343939051498	0.0999663299880922	0.200041886419058
29684.5	100	282	2	26	1	1	0	1	1	3	1	22.5	157.5	-2.67807736349072	-2.2606876382892	0.2	0	0	0	288.543972892221	288.643968479242	0.0999955870211124	0.200033840723336
29759.5	100	283	2	27	1	1	0	1	1	3	2	157.5	112.5	-2.71575551783225	-0.641582426554884	0.2	0	0	0	288.843992567621	288.943957678508	0.099965110886842	0.200024088378996
29834.5	100	284	2	28	1	1	0	1	1	3	1	112.5	67.5	1.66247759308568	-1.94282718760121	0.2	0	0	0	289.144000540022	289.243960043415	0.0999595033936203	0.200042861513793
29909.5	100	285	2	29	1	1	0	1	1	2	-1	135	0	-3.07375188166592	0.285812722259557	0.2	0	0	0	289.443987789098	289.543988496065	0.100000706966966	0.200027745682746
29984.5	100	286	2	30	1	1	0	1	1	3	2	67.5	22.5	3.0556981896797	0.322790084510949	0.2	0	0	0	289.74401477864	289.84399720002	0.0999824213795364	0.200026282574981
30059.5	100	287	2	31	1	1	0	1	1	3	2	67.5	112.5	1.71173223162417	-1.33479160439414	0.2	0	0	0	290.044023726601	290.144007610623	0.0999838840216398	0.200026526581496
30134.5	100	288	2	32	1	1	0	1	1	3	1	112.5	157.5	1.98328909488611	-3.10995134732256	0.2	0	0	0	290.344023165759	290.443998516537	0.0999753507785499	0.200015555135906
30209.5	100	289	2	33	1	1	0	1	1	3	2	157.5	22.5	-1.11417823924003	-2.64744135184605	0.2	0	0	0	290.644023092464	290.744003075641	0.099979983177036	0.200024575926363
30284.5	100	290	2	34	1	1	0	1	1	0	2	157.5	22.5	-2.06509494768528	-0.287346003325927	0.2	0	0	0	290.944038379472	291.044018362649	0.099979983177036	0.2000353038311
30359.5	100	291	2	35	1	1	0	1	1	0	1	112.5	67.5	1.81937387611976	-0.226090173714472	0.2	0	0	0	291.244033186231	291.344031943008	0.0999987567774951	0.200014823582023
30434.5	100	292	2	36	1	1	0	1	1	0	2	157.5	112.5	1.73198711258803	-1.80242463096992	0.2	0	0	0	291.54406749038	291.644044547807	0.0999770574271679	0.200035547371954
30509.5	100	293	2	37	1	1	0	1	1	0	1	112.5	67.5	1.25071121160851	-2.07347186243772	0.2	0	0	0	291.844065954443	291.944055445958	0.0999894915148616	0.200021406635642
30584.5	100	294	2	38	1	1	0	1	1	0	2	67.5	112.5	2.31692353260509	0.782318078592295	0.2	0	0	0	292.144074901938	292.244057567324	0.0999826653860509	0.20001945598051
30659.5	100	295	2	39	1	1	0	1	1	0	1	22.5	157.5	-1.17104398168358	1.51027452295972	0.2	0	0	0	292.444088726304	292.544080412015	0.0999916857108474	0.200031158979982
30734.5	100	296	2	40	1	1	0	1	1	0	2	157.5	22.5	-2.59078330784634	2.59914256358605	0.2	0	0	0	292.744089872111	292.844072781038	0.0999829089269042	0.200009460095316
30809.5	100	297	2	41	1	1	0	1	1	0	2	67.5	22.5	-0.496077137771814	-2.58127234236115	0.2	0	0	0	293.044072488323	293.144055884797	0.099983396474272	0.199999707285315
30884.5	100	298	2	42	1	1	0	1	1	0	1	22.5	67.5	0.464805345012288	0.805557816759444	0.2	0	0	0	293.344083874486	293.444066051859	0.0999821773730218	0.200027989689261
30959.5	100	299	2	43	1	1	0	1	1	0	1	112.5	67.5	-0.355890720289735	-0.18408122642777	0.2	0	0	0	293.644088921137	293.744075243361	0.0999863222241402	0.200022869277745
31034.5	100	300	2	44	1	1	0	1	1	0	1	22.5	157.5	2.03407395898017	1.21429327271213	0.2	0	0	0	293.944101038389	294.044077120721	0.0999760823324323	0.200025795027614
31109.5	100	301	2	45	1	1	0	1	1	0	2	67.5	22.5	-2.4424850454609	0.621011242612778	0.2	0	0	0	294.24413071014	294.344092163723	0.0999614535830915	0.20005358941853
31184.5	100	302	2	46	1	1	0	1	1	0	2	157.5	112.5	0.00786067896303777	-1.91226923150708	0.2	0	0	0	294.544110644609	294.644090384245	0.0999797396361828	0.200018480885774
31259.5	100	303	2	47	1	1	0	1	1	0	2	67.5	112.5	0.945612341157498	0.191778879165079	0.2	0	0	0	294.844149581157	294.94410518324	0.0999556020833552	0.200059196911752
31334.5	100	304	2	48	1	1	0	1	1	0	1	22.5	157.5	-1.71152438530959	-0.693976192648166	0.2	0	0	0	295.144166818354	295.24414265668	0.0999758383259177	0.200061635114253
31409.5	100	305	2	49	1	1	0	1	1	0	2	157.5	112.5	1.18390597518541	0.927769072607314	0.2	0	0	0	295.444166501518	295.544151604641	0.09998510312289	0.200023844838142
31484.5	100	306	2	50	1	1	0	1	1	0	1	22.5	157.5	1.4007998345133	-0.574326682127436	0.2	0	0	0	295.744176424574	295.844160552602	0.0999841280281544	0.200024819932878
31559.5	100	307	2	51	1	1	0	1	1	0	2	67.5	22.5	0.96316136465665	-2.49423341976101	0.2	0	0	0	296.044185372069	296.144171694759	0.0999863226898015	0.200024819467217
31634.5	100	308	2	52	1	1	0	1	1	0	2	157.5	22.5	-2.67533101720316	-1.32104692028482	0.2	0	0	0	296.344183836132	296.444164063316	0.0999802271835506	0.200012141373008
31709.5	100	309	2	53	1	1	0	1	1	0	2	67.5	112.5	1.75710266724082	1.66495127713042	0.2	0	0	0	296.644185469951	296.744166915771	0.0999814458191395	0.200021406635642
31784.5	100	310	2	54	1	1	0	1	1	0	2	67.5	22.5	3.01171896312103	2.46288740345913	0.2	0	0	0	296.944210265297	297.044191467576	0.0999812022782862	0.200043349526823
31859.5	100	311	2	55	1	1	0	1	1	0	2	157.5	112.5	-0.123998261110288	2.39115863548738	0.2	0	0	0	297.24421750661	297.344193588477	0.099976081866771	0.200026039034128
31934.5	100	312	2	56	1	1	0	1	1	0	1	22.5	67.5	-2.78895475108436	1.16319808453917	0.2	0	0	0	297.544204511214	297.644207412843	0.100002901628613	0.20001092273742
32009.5	100	313	2	57	1	1	0	1	1	0	2	157.5	22.5	-2.96671063724743	-0.30834770887137	0.2	0	0	0	297.844244666863	297.944221480284	0.0999768134206533	0.200037254020572
32084.5	100	314	2	58	1	1	0	1	1	0	1	22.5	67.5	1.61167348467542	0.658922367118845	0.2	0	0	0	298.144243862014	298.244206047151	0.0999621851369739	0.200022381730378
32159.5	100	315	2	59	1	1	0	1	1	0	1	112.5	157.5	-1.93818126123226	-0.663283262629487	0.2	0	0	0	298.444253541529	298.54421548266	0.0999619411304593	0.200047494377941
32234.5	100	316	2	60	1	1	0	1	1	0	1	22.5	157.5	-0.642956340959792	1.05014956031836	0.2	0	0	0	298.744250786491	298.844222723972	0.0999719374813139	0.2000353038311
32309.5	100	317	2	61	1	1	0	1	1	0	2	67.5	112.5	-1.78908089229623	2.4214468924666	0.2	0	0	0	299.044225357007	299.144253126811	0.100027769804001	0.200002633035183
32384.5	100	318	2	62	1	1	0	1	1	0	1	112.5	157.5	1.4911631967491	-1.67003517542918	0.2	0	0	0	299.344275508542	299.444235255942	0.0999597474001348	0.200022381730378
32459.5	100	319	2	63	1	1	0	1	1	0	2	67.5	112.5	-2.33644376985416	-0.869047495419916	0.2	0	0	0	299.644284700509	299.744263708126	0.0999790076166391	0.200049444567412
32534.5	100	320	2	64	1	1	0	1	1	0	1	112.5	67.5	2.52698082533167	1.55453659719423	0.2	0	0	0	299.944291210268	300.044249738101	0.0999585278332233	0.200027502141893
32609.5	100	321	2	65	1	1	0	1	1	0	1	112.5	67.5	-1.05032024164798	-0.84751039777045	0.2	0	0	0	300.244274070021	300.344266000204	0.0999919301830232	0.200024331919849
32684.5	100	322	2	66	1	1	0	1	1	0	2	157.5	112.5	1.25410026912098	1.05526889323439	0.2	0	0	0	300.544288137928	300.64427299751	0.0999848595820367	0.200022137723863
32759.5	100	323	2	67	1	1	0	1	1	0	2	157.5	22.5	1.87363643083331	0.010074858787962	0.2	0	0	0	300.844317078125	300.944292428903	0.0999753507785499	0.200044080615044
32834.5	100	324	2	68	1	1	0	1	1	0	1	112.5	67.5	0.0948008576232207	-0.333386981667853	0.2	1	0	0	301.144313103985	301.244297963567	0.0999848595820367	0.20002067508176
32909.5	100	325	2	69	1	1	0	1	1	0	1	112.5	67.5	0.598462243458653	0.267797515919459	0.2	0	0	0	301.444323514588	301.544306423981	0.0999829093925655	0.200025551021099
32984.5	100	326	2	70	1	1	0	1	1	0	2	157.5	112.5	-1.26875897616845	-1.32811111572708	0.2	0	0	0	301.744332462549	301.844313664827	0.0999812022782862	0.200026038568467
33059.5	100	327	2	71	1	1	0	1	1	0	2	157.5	22.5	-0.950298493125955	-1.71559502448121	0.2	0	0	0	302.044336290564	302.144332121126	0.0999958305619657	0.200022625736892
33134.5	100	328	2	72	1	1	0	1	1	0	1	22.5	157.5	2.58145501961175	-2.36255553878777	0.2	0	0	0	302.34434523806	302.444320832845	0.0999755947850645	0.200013116933405
33209.5	100	329	2	73	1	1	0	1	1	0	2	67.5	112.5	2.83894611493896	2.7095720329311	0.2	0	0	0	302.644369302318	302.744346847292	0.0999775449745357	0.200048469472677
33284.5	100	330	2	74	1	1	0	1	1	0	1	112.5	157.5	-1.79122435569263	-2.82768075156276	0.2	0	0	0	302.944371667225	303.044339703862	0.0999680366367102	0.200024819932878
33359.5	100	331	2	75	1	1	0	1	1	0	1	22.5	67.5	0.877890512727172	-1.19509325227175	0.2	0	0	0	303.244356234092	303.344341093674	0.0999848595820367	0.200016530230641
33434.5	100	332	2	76	1	1	0	1	1	0	1	22.5	67.5	0.0334994705284162	2.22736038534413	0.2	0	0	0	303.544367863797	303.644357111771	0.0999892479740083	0.200026770122349
33509.5	100	333	2	77	1	1	0	1	1	0	2	67.5	22.5	-1.61963245065496	2.23328963243641	0.2	0	0	0	303.844403630588	303.944361427333	0.0999577967450023	0.200046518817544
33584.5	100	334	2	78	1	1	0	1	1	0	2	67.5	22.5	-1.67073395395987	-2.8062251004662	0.2	0	0	0	304.144378689118	304.244388660882	0.100009971763939	0.200017261784524
33659.5	100	335	2	79	1	1	0	1	1	0	1	22.5	157.5	2.28103429186121	-0.36644167438117	0.2	0	0	0	304.444390562363	304.54437639704	0.0999858346767724	0.200001901481301
33734.5	100	336	2	80	1	1	0	1	1	0	2	157.5	112.5	0.935297934505639	0.58821766053494	0.2	0	0	0	304.744400485419	304.844406800345	0.100006314925849	0.200024088378996
33809.5	100	337	2	81	1	1	0	1	1	0	2	157.5	112.5	-2.57460640112468	-1.32460834563917	0.2	0	0	0	305.044426987413	305.144415260293	0.0999882728792727	0.200020187068731
33884.5	100	338	2	82	1	1	0	1	1	0	1	22.5	67.5	-1.25961185387041	1.85854684911353	0.2	0	0	0	305.344427402131	305.44440275291	0.0999753507785499	0.20001214183867
33959.5	100	339	2	83	1	1	0	1	1	0	2	67.5	112.5	-2.20329197408796	-2.99349149495165	0.2	0	0	0	305.644449759275	305.744428767357	0.0999790080823004	0.200047006364912
34034.5	100	340	2	84	1	1	0	1	1	0	2	67.5	22.5	-0.587480418303037	-2.11575959165554	0.2	0	0	0	305.944453830831	306.044438934419	0.0999851035885513	0.200025063473731
34109.5	100	341	2	85	1	1	0	1	1	0	1	112.5	157.5	1.69653460868828	-2.180267726438	0.2	0	0	0	306.244459853042	306.344450807665	0.0999909546226263	0.200020918622613
34184.5	100	342	2	86	1	1	0	1	1	0	1	112.5	157.5	2.23171321620237	-2.02334656742402	0.2	0	0	0	306.544470751658	306.644454148132	0.099983396474272	0.200019943993539
34259.5	100	343	2	87	1	1	0	1	1	0	2	67.5	22.5	-2.00966156779345	3.01912122305608	0.2	0	0	0	306.844465558417	306.944452124182	0.0999865657649934	0.200011410284787
34334.5	100	344	2	88	1	1	0	1	1	3	2	67.5	112.5	2.1647438942739	-2.5507651184792	0.2	0	0	0	307.144486452918	307.244471312035	0.0999848591163754	0.200034328736365
34409.5	100	345	2	89	1	1	0	1	1	3	1	112.5	67.5	2.6148894329525	-2.37052747345867	0.2	0	0	0	307.444494181313	307.544473676942	0.0999794956296682	0.200022869277745
34484.5	100	346	2	90	1	1	0	1	1	3	2	157.5	112.5	-2.6797398944359	-0.769985113120589	0.2	0	0	0	307.744485818781	307.844463851769	0.0999780329875648	0.20001214183867
34559.5	100	347	2	91	1	1	0	1	1	1	-1	0	135	0.444955070717447	-1.47987722212749	0.2	0	0	0	308.0444874526	308.144469873514	0.0999824209138751	0.200023600831628
34634.75	100	348	2	92	1	1	0	1	1	3	2	67.5	22.5	-2.21217493577929	-0.142167656168787	0.2	0	0	0	308.344521025196	308.444499545265	0.0999785200692713	0.200051151681691
34709.75	100	349	2	93	1	1	0	1	1	3	2	157.5	22.5	2.46695997291229	-1.23001074114589	0.2	1	0.492246001027524	1	308.644510712009	308.744508005679	0.0999972936697304	0.200011166743934
34784.75	100	350	2	94	1	1	0	1	1	3	1	112.5	157.5	-0.910643990112074	-2.09704195777999	0.2	0	0	0	308.944520878606	309.044495985843	0.0999751072376966	0.200012872926891
34859.75	100	351	2	95	1	1	0	1	1	3	1	22.5	67.5	1.75032244331372	1.99821302973406	0.2	0	0	0	309.244521293323	309.344524194486	0.100002901162952	0.200025307480246
34934.75	100	352	2	96	1	1	0	1	1	0	2	157.5	22.5	-2.0120277201365	2.55827492584962	0.2	0	0	0	309.544531216379	309.644514125306	0.0999829089269042	0.200007021892816
35009.75	100	353	2	97	1	1	0	1	1	0	2	157.5	112.5	-1.20384215045307	2.1654471142944	0.2	0	0	0	309.844541870523	309.944510638714	0.0999687681905925	0.200027745217085
35084.75	100	354	2	98	1	1	0	1	1	0	1	22.5	67.5	0.26861974471105	-1.7585560720782	0.2	0	0	0	310.144568128977	310.244553719647	0.0999855906702578	0.200057490263134
35159.75	100	355	2	99	1	1	0	1	1	0	2	157.5	22.5	-2.79106170915675	0.272331309909705	0.2	0	0	0	310.444581221789	310.544539993163	0.0999587713740766	0.200027502141893
35234.75	100	356	2	100	1	1	0	1	1	0	1	22.5	67.5	0.474495455093467	2.18890438196324	0.2	0	0	0	310.744566763751	310.84456893336	0.10000216960907	0.200026770588011
35309.75	100	357	2	101	1	1	0	1	1	0	1	112.5	67.5	1.51651677908078	1.75130440416615	0.2	0	0	0	311.044581319205	311.144573980477	0.0999926612712443	0.200012385845184
35384.75	100	358	2	102	1	1	0	1	1	0	1	22.5	67.5	-2.53050284446053	-1.87296845469696	0.2	0	0	0	311.344597824849	311.444565373939	0.0999675490893424	0.200023844372481
35459.75	100	359	2	103	1	1	0	1	1	0	1	112.5	157.5	2.6678030917212	-2.321670976411	0.2	0	0	0	311.644591656514	311.744573346339	0.099981689825654	0.200026282574981
35534.75	100	360	2	104	1	1	0	1	1	0	1	22.5	157.5	-2.87829547495617	1.94261112712484	0.2	0	0	0	311.944594265427	312.044599117246	0.100004851818085	0.200020919088274
35609.75	100	361	2	105	1	1	0	1	1	0	1	112.5	67.5	-2.15728100898905	0.625992223485745	0.2	0	0	0	312.244627106469	312.344599287957	0.0999721814878285	0.200027989223599
35684.75	100	362	2	106	1	1	0	1	1	0	1	22.5	157.5	-1.03982674107798	2.03887184765967	0.2	0	0	0	312.544629227836	312.644616281614	0.0999870537780225	0.200029939878732
35759.75	100	363	2	107	1	1	0	1	1	0	1	112.5	67.5	-1.61276163128992	-2.89099012775091	0.2	0	0	0	312.844610868953	312.944604261778	0.0999933928251266	0.199994587339461
35834.75	100	364	2	108	1	1	0	1	1	0	1	112.5	157.5	2.78208543020188	-1.33000622192918	0.2	0	0	0	313.144625911955	313.244606626686	0.0999807147309184	0.200021650176495
35909.75	100	365	2	109	1	1	0	1	1	0	2	67.5	22.5	1.76473592868366	-0.243301669900107	0.2	0	0	0	313.444636566564	313.544623863883	0.0999872973188758	0.200029939878732
35984.75	100	366	2	110	1	1	0	1	1	0	1	22.5	157.5	2.19030869975426	0.5904280993787	0.2	0	0	0	313.74464648962	313.844649390783	0.100002901162952	0.200022625736892
36059.75	100	367	2	111	1	1	0	1	1	0	2	157.5	22.5	1.9273111897375	2.58584649998815	0.2	0	0	0	314.044670553412	314.144658094738	0.0999875413253903	0.200021162629128
36134.75	100	368	2	112	1	1	0	1	1	0	2	67.5	22.5	-1.90360912586433	1.05700447054997	0.2	0	0	0	314.344670236576	314.44466728624	0.0999970496632159	0.20001214183867
36209.75	100	369	2	113	1	1	0	1	1	0	2	67.5	112.5	0.69611965091382	-0.770948565429826	0.2	0	0	0	314.644693812821	314.744674771093	0.0999809582717717	0.200026526581496
36284.75	100	370	2	114	1	1	0	1	1	0	1	22.5	67.5	-1.55679422025947	2.73677041021672	0.2	0	0	0	314.944696177728	315.044677380007	0.0999812022782862	0.200021406635642
36359.75	100	371	2	115	1	1	0	1	1	0	2	67.5	112.5	0.537392892444462	-0.849011632489633	0.2	0	0	0	315.244686352089	315.34469071636	0.100004364270717	0.200008972082287
36434.75	100	372	2	116	1	1	0	1	1	0	1	22.5	157.5	1.56664314961241	-3.05202839192088	0.2	0	0	0	315.544718218036	315.644672113936	0.0999538959003985	0.200027501676232
36509.75	100	373	2	117	1	1	0	1	1	0	2	157.5	22.5	-0.637701253801371	-2.01574152372521	0.2	0	0	0	315.844708392862	315.944686912932	0.0999785200692713	0.200036278925836
36584.75	100	374	2	118	1	1	0	1	1	0	1	112.5	157.5	-2.73286327049745	-0.225369239345406	0.2	0	0	0	316.144708075561	316.244695860893	0.0999877853319049	0.200021162629128
36659.75	100	375	2	119	1	1	0	1	1	0	2	67.5	112.5	-0.24240492534416	0.335787393736557	0.2	0	0	0	316.44473945396	316.544720168691	0.0999807147309184	0.200043593067676
36734.75	100	376	2	120	1	1	0	1	1	0	2	67.5	22.5	2.22065758004658	-2.47462544344131	0.2	0	0	0	316.744745963719	316.844705467112	0.0999595033936203	0.200025795027614
36809.75	100	377	2	121	1	1	0	1	1	0	2	157.5	112.5	1.78457222069505	2.2862989434549	0.2	0	0	0	317.044729311485	317.14471392706	0.0999846155755222	0.200023844372481
36884.75	100	378	2	122	1	1	0	1	1	0	2	67.5	112.5	0.203410936921678	-3.12548113574401	0.2	0	0	0	317.344737527892	317.444732383359	0.0999948554672301	0.200023600831628
36959.75	100	379	2	123	1	1	0	1	1	0	2	67.5	22.5	1.03474679702002	-2.2789230490541	0.2	0	0	0	317.644772075582	317.744810573291	0.100038497708738	0.200039692223072
37034.75	100	380	2	124	1	1	0	1	1	3	1	22.5	157.5	-2.49039741968579	-0.72209495546463	0.2	0	0	0	317.944782242645	318.044762713369	0.0999804707244039	0.199971669353545
37109.75	100	381	2	125	1	1	0	1	1	3	1	22.5	67.5	0.144759105631326	-2.15228750005077	0.2	0	0	0	318.244766321965	318.34476873558	0.100002413615584	0.20000360859558
37184.75	100	382	2	126	1	1	0	1	1	3	1	112.5	67.5	0.548736396647205	2.75480740642352	0.2	0	0	0	318.544792336412	318.644758909941	0.0999665735289454	0.200023600831628
37259.75	100	383	2	127	1	1	0	1	1	3	2	67.5	112.5	1.10807171580629	2.56952430703046	0.2	0	0	0	318.844777390826	318.944776878692	0.0999994878657162	0.200018480885774
38384.75	100	384	3	0	1	1	90	1	2	3	2	157.5	112.5	-2.1101148729419	1.18571257306512	0.2	0	0	0	323.344894297421	323.444877450354	0.0999831529334188	-1
38459.75	100	385	3	1	1	1	90	1	2	3	1	112.5	67.5	-2.68926155005186	0.577266326153147	0.2	0	0	0	323.644948837813	323.744908584747	0.0999597469344735	0.200071387458593
38534.75	100	386	3	2	1	1	90	1	2	3	2	67.5	22.5	-0.156936431539318	-2.47608184984771	0.2	0	0	0	323.944940474816	324.044919726904	0.099979252088815	0.200031890068203
38609.75	100	387	3	3	1	1	90	1	2	3	2	67.5	112.5	3.07419811214766	0.783491400540205	0.2	0	0	0	324.244943327736	324.344931844156	0.099988516420126	0.200023600831628
38684.75	100	388	3	4	1	1	90	1	2	0	2	157.5	112.5	2.61962107856697	1.81666032929235	0.2	0	0	0	324.544924481306	324.644938109908	0.100013628602028	0.19999263714999
38759.75	100	389	3	5	1	1	90	1	2	0	2	157.5	22.5	-2.67725864974133	2.7369676393171	0.2	0	0	0	324.844960979652	324.944949739613	0.0999887599609792	0.200022869743407
38834.75	100	390	3	6	1	1	90	1	2	0	2	157.5	22.5	1.94086473550085	-1.76009530990842	0.2	0	0	0	325.144942620769	325.244950641878	0.100008021108806	0.199992881156504
38909.75	100	391	3	7	1	1	90	1	2	0	1	112.5	157.5	-2.70675862448483	-1.52332760223884	0.2	0	0	0	325.444953762461	325.544927894603	0.099974132142961	0.200003120582551
38984.75	100	392	3	8	1	1	90	1	2	0	1	22.5	157.5	-1.79240336418822	-1.68672443045052	0.2	0	0	0	325.744946131483	325.844950983301	0.100004851818085	0.200018236879259
39059.75	100	393	3	9	1	1	90	1	2	0	1	112.5	67.5	-2.31795987893598	0.679233787134726	0.2	0	0	0	326.044993357267	326.144979191944	0.0999858346767724	0.200042373966426
39134.75	100	394	3	10	1	1	90	1	2	0	1	22.5	67.5	-2.26308091929042	-0.0638529858749837	0.2	0	0	0	326.34500352433	326.444963271264	0.0999597469344735	0.20002433238551
39209.75	100	395	3	11	1	1	90	1	2	0	1	22.5	157.5	-0.459229178860702	1.16213668915547	0.2	0	0	0	326.645012228284	326.744990504812	0.0999782765284181	0.200048957020044
39284.75	100	396	3	12	1	1	90	1	2	0	2	157.5	22.5	-0.111822474921909	1.36932146801803	0.2	0	0	0	326.945022638887	327.04499896476	0.0999763258732855	0.200032134074718
39359.75	100	397	3	13	1	1	90	1	2	0	1	112.5	157.5	2.10185361591521	2.22530485902244	0.2	0	0	0	327.245020127855	327.345004986972	0.0999848591163754	0.200021163094789
39434.75	100	398	3	14	1	1	90	1	2	0	2	157.5	22.5	1.73445064740253	-0.0545497525987062	0.2	0	0	0	327.545029806904	327.645012715831	0.0999829089269042	0.200024819932878
39509.75	100	399	3	15	1	1	90	1	2	0	2	157.5	112.5	-0.435976685893509	-1.06298866952003	0.2	0	0	0	327.845039485954	327.945019469131	0.099979983177036	0.200026770122349
39584.75	100	400	3	16	1	1	90	1	2	0	2	67.5	22.5	0.667486718826194	2.3317328434246	0.2	0	0	0	328.145024784375	328.245007205755	0.0999824213795364	0.200005315244198
39659.75	100	401	3	17	1	1	90	1	2	0	1	22.5	157.5	0.823617869933922	1.4441247203765	0.2	0	0	0	328.445036901627	328.545007376466	0.0999704748392105	0.200029695872217
39734.75	100	402	3	18	1	1	90	1	2	0	1	112.5	157.5	-0.406601324390222	-1.69730041074849	0.2	0	0	0	328.745039998088	328.845016567968	0.0999765698798001	0.200032621622086
39809.75	100	403	3	19	1	1	90	1	2	0	2	157.5	112.5	-0.351338086012474	0.3798188779743	0.2	0	0	0	329.045060892589	329.14505623607	0.0999953434802592	0.200044324621558
39884.75	100	404	3	20	1	1	90	1	2	0	2	67.5	22.5	0.193630724605206	-0.37704767304926	0.2	0	0	0	329.345078617334	329.445058600977	0.0999799836426973	0.200022381264716
39959.75	100	405	3	21	1	1	90	1	2	0	2	67.5	22.5	-0.196693859815659	0.759245158510852	0.2	0	0	0	329.645090735052	329.745067304932	0.0999765698798001	0.200032134074718
40034.75	100	406	3	22	1	1	90	1	2	0	1	22.5	157.5	-2.19882571068754	-1.7314788166716	0.2	0	0	0	329.945096025709	330.045078934636	0.0999829089269042	0.200028720777482
40109.75	100	407	3	23	1	1	90	1	2	0	1	112.5	157.5	2.26878710878538	-2.56504163541404	0.2	0	0	0	330.245106192306	330.345087882131	0.099981689825654	0.200027257669717
40184.75	100	408	3	24	1	1	90	1	2	0	2	67.5	112.5	1.6358302065738	-1.83860392638706	0.2	0	0	0	330.545112702064	330.645095123444	0.0999824213795364	0.200024819932878
40259.75	100	409	3	25	1	1	90	1	2	0	2	157.5	22.5	-2.34424932038004	2.23336185407358	0.2	0	0	0	330.845124088228	330.945106021594	0.0999819333665073	0.200028964783996
40334.75	100	410	3	26	1	1	90	1	2	0	1	22.5	67.5	-2.44075520896861	2.90529874309232	0.2	0	0	0	331.145131085534	331.245113994461	0.0999829089269042	0.200025063939393
40409.75	100	411	3	27	1	1	90	1	2	0	2	67.5	112.5	0.506339605247644	-2.18376892578443	0.2	0	0	0	331.445135888644	331.545119772665	0.0999838840216398	0.20002189418301
40484.75	100	412	3	28	1	1	90	1	2	0	2	157.5	112.5	0.609296240514673	2.49767076065673	0.2	0	0	0	331.745124843903	331.845098000485	0.0999731565825641	0.200005071237683
40559.75	100	413	3	29	1	1	90	1	2	0	2	67.5	112.5	0.496911329132764	-0.524760722502154	0.2	0	0	0	332.045152077451	332.145136937033	0.0999848595820367	0.200054076965898
40634.75	100	414	3	30	1	1	90	1	2	0	1	22.5	157.5	1.65594463498901	-1.8085051034049	0.2	0	0	0	332.345162732061	332.44514710363	0.0999843715690076	0.200025795027614
40709.75	100	415	3	31	1	1	90	1	2	0	1	112.5	67.5	-1.77366640500697	2.71451938116416	0.2	0	0	0	332.64516948536	332.745138009544	0.099968524184078	0.200022381730378
40784.75	100	416	3	32	1	1	90	1	2	0	2	157.5	22.5	0.853886447951122	-1.51723327852382	0.2	0	0	0	332.945167461876	333.045146957505	0.0999794956296682	0.200029452331364
40859.75	100	417	3	33	1	1	90	1	2	0	1	112.5	157.5	-0.970122851599454	-0.0487502089164589	0.2	0	0	0	333.245189087931	333.345170777757	0.099981689825654	0.200042130425572
40934.75	100	418	3	34	1	1	90	1	2	0	2	157.5	22.5	2.14028156842123	-0.00499384966013716	0.2	0	0	0	333.545197303873	333.645183626562	0.0999863226898015	0.200026526115835
41009.75	100	419	3	35	1	1	90	1	2	0	1	112.5	157.5	-0.831996857818917	1.98830117131226	0.2	0	0	0	333.845211128239	333.94517721422	0.0999660859815776	0.200027501676232
41084.75	100	420	3	36	1	1	90	1	2	0	2	67.5	112.5	2.00920460206966	-0.641485674338199	0.2	0	0	0	334.145198864397	334.245178604033	0.0999797396361828	0.200021650176495
41159.75	100	421	3	37	1	1	90	1	2	0	2	67.5	22.5	-0.634443594605079	1.33015122516461	0.2	0	0	0	334.445201716851	334.545186332427	0.0999846155755222	0.200023112818599
41234.75	100	422	3	38	1	1	90	1	2	0	1	22.5	67.5	2.37867127271787	0.97416149010585	0.2	0	0	0	334.74521115236	334.845243798569	0.100032646209002	0.200024819932878
41309.75	100	423	3	39	1	1	90	1	2	3	2	67.5	112.5	1.95117384578156	-1.93952182653528	0.2	0	0	0	335.045241555665	335.145227877889	0.0999863222241402	0.199997757095844
41384.75	100	424	3	40	1	1	90	1	2	3	2	157.5	112.5	-2.89008898532873	-0.487826028282503	0.2	0	0	0	335.345243433025	335.445224635303	0.0999812022782862	0.200015555135906
41459.75	100	425	3	41	1	1	90	1	2	3	2	157.5	22.5	-2.18212654018167	-0.248790479686418	0.2	0	0	0	335.64524945477	335.745234070346	0.0999846155755222	0.200024819467217
41534.75	100	426	3	42	1	1	90	1	2	2	-1	135	90	-1.7534846430579	0.342625263700817	0.2	0	0	0	335.945259134285	336.045225464273	0.0999663299880922	0.200025063939393
41609.75	100	427	3	43	1	1	90	1	2	3	2	67.5	22.5	-1.41579723915785	-2.94767117834482	0.2	0	0	0	336.245254916139	336.345233192667	0.0999782765284181	0.200029451865703
41684.75	100	428	3	44	1	1	90	1	2	3	1	22.5	67.5	1.94085927177001	1.80345943519099	0.2	0	0	0	336.545257281046	336.645218247548	0.099960966501385	0.200024088378996
41759.75	100	429	3	45	1	1	90	1	2	3	1	22.5	157.5	2.69588743577941	-2.09713001672729	0.2	0	0	0	336.845268423203	336.945275713224	0.100007290020585	0.200050175655633
41834.75	100	430	3	46	1	1	90	1	2	3	1	112.5	67.5	-2.20996940929802	0.805083793651059	0.2	0	0	0	337.145296875853	337.245284417178	0.0999875413253903	0.200021162629128
41909.75	100	431	3	47	1	1	90	1	2	0	2	67.5	112.5	1.31890371692545	-2.3168248002083	0.2	0	0	0	337.445313625503	337.545264351647	0.0999507261440158	0.20002920832485
41984.75	100	432	3	48	1	1	90	1	2	0	1	112.5	67.5	0.301039200559508	-0.260389257283453	0.2	0	0	0	337.745305994526	337.845285246149	0.0999792516231537	0.200041642878205
42059.75	100	433	3	49	1	1	90	1	2	0	2	67.5	112.5	3.04310088590336	-1.4961049549321	0.2	0	0	0	338.045320793521	338.145288586617	0.0999677930958569	0.200035547371954
42134.75	100	434	3	50	1	1	90	1	2	0	2	67.5	22.5	-2.42497496842147	2.12755705906547	0.2	0	0	0	338.345315112732	338.445315332152	0.100000219419599	0.200026526115835
42209.75	100	435	3	51	1	1	90	1	2	0	2	157.5	112.5	0.942099058659794	-2.26677129008806	0.2	0	0	0	338.645340639632	338.745318916161	0.0999782765284181	0.200025307480246
42284.75	100	436	3	52	1	1	90	1	2	0	1	22.5	157.5	2.97510446700726	-1.38360165035618	0.2	0	0	0	338.945335690398	339.045314942021	0.0999792516231537	0.200016774237156
42359.75	100	437	3	53	1	1	90	1	2	0	2	67.5	112.5	1.00928137888051	3.06304612147957	0.2	0	0	0	339.245352927595	339.345337787177	0.0999848595820367	0.200037985574454
42434.75	100	438	3	54	1	1	90	1	2	0	2	67.5	112.5	2.08817750030195	1.66773020257315	0.2	0	0	0	339.545365045313	339.645354293287	0.0999892479740083	0.200027258135378
42509.75	100	439	3	55	1	1	90	1	2	0	2	157.5	22.5	1.39769343205027	0.536828769359216	0.2	0	0	0	339.845371798612	339.945353488438	0.099981689825654	0.200017505325377
42584.75	100	440	3	56	1	1	90	1	2	0	1	112.5	157.5	-0.187352639884083	-1.25753862005361	0.2	0	0	0	340.14536636183	340.24534585746	0.0999794956296682	0.200012873392552
42659.75	100	441	3	57	1	1	90	1	2	0	2	157.5	22.5	-2.83622031034846	1.88806284160205	0.2	0	0	0	340.445371652488	340.545367970597	0.0999963181093335	0.200025795027614
42734.75	100	442	3	58	1	1	90	1	2	0	2	157.5	22.5	3.09258463511884	-1.1873631445957	0.2	0	0	0	340.745395228732	340.845378381666	0.0999831529334188	0.200027258135378
42809.75	100	443	3	59	1	1	90	1	2	0	1	112.5	67.5	-0.0814946711310385	-2.98285455489102	0.2	0	0	0	341.045402713586	341.145356853027	0.0999541394412518	0.200024331919849
42884.75	100	444	3	60	1	1	90	1	2	0	1	22.5	67.5	-1.26918879531304	-0.676214533304716	0.2	0	0	0	341.345403128304	341.445378235076	0.0999751067720354	0.200046275276691
42959.75	100	445	3	61	1	1	90	1	2	0	2	67.5	22.5	-2.92452948472734	0.336163288381217	0.2	0	0	0	341.645383793861	341.745401080232	0.10001728637144	0.200005558785051
43034.75	100	446	3	62	1	1	90	1	2	3	2	157.5	112.5	2.11987062379651	0.731870156887325	0.2	0	0	0	341.945427850354	342.045410515741	0.0999826653860509	0.200026770122349
43109.75	100	447	3	63	1	1	90	1	2	3	1	112.5	67.5	-2.49782787506195	-1.19655937792735	0.2	0	0	0	342.245412661228	342.345419707242	0.100007046014071	0.200002145487815
43184.75	100	448	3	64	1	1	90	1	2	3	1	112.5	157.5	-0.0858829950410778	0.290793213734353	0.2	0	0	0	342.545446233824	342.645430117846	0.0999838840216398	0.200026526581496
43259.75	100	449	3	65	1	1	90	1	2	1	-1	90	135	-1.79570459110996	1.44497318643021	0.2	0	0	0	342.845450792927	342.945417854469	0.0999670615419745	0.20002067508176
43334.75	100	450	3	66	1	1	90	1	2	3	1	22.5	157.5	-0.494856597879382	-1.50963885567748	0.2	0	0	0	343.145463154186	343.245446794666	0.0999836404807866	0.200045299716294
43409.75	100	451	3	67	1	1	90	1	2	3	2	157.5	22.5	-0.439636217153953	-3.08613506443461	0.2	1	0.492202602792531	1	343.445470151491	343.545450622216	0.0999804707244039	0.200023356825113
43484.75	100	452	3	68	1	1	90	1	2	3	2	67.5	112.5	1.02609405120798	0.274729370427235	0.2	0	0	0	343.745462276507	343.845458838623	0.0999965621158481	0.200011654291302
43559.75	100	453	3	69	1	1	90	1	2	3	2	67.5	22.5	-2.78877131291947	0.26676749729296	0.2	0	0	0	344.045484146103	344.145468517672	0.0999843715690076	0.200025307480246
43634.75	100	454	3	70	1	1	90	1	2	0	1	112.5	157.5	2.184585883165	2.40896108143065	0.2	0	0	0	344.34547651466	344.445476734079	0.100000219419599	0.200007996987551
43709.75	100	455	3	71	1	1	90	1	2	0	2	67.5	112.5	-1.67776717565634	0.99601999006815	0.2	0	0	0	344.645500334911	344.745481781196	0.0999814462848008	0.200023600831628
43784.75	100	456	3	72	1	1	90	1	2	0	2	157.5	112.5	-2.15705716634007	0.819172579702845	0.2	0	0	0	344.945508551318	345.045471224003	0.0999626726843417	0.200026770122349
43859.75	100	457	3	73	1	1	90	1	2	0	2	67.5	22.5	-1.65468291854213	-0.415527836523179	0.2	0	0	0	345.245505552739	345.345499676652	0.0999941239133477	0.200034328736365
43934.75	100	458	3	74	1	1	90	1	2	0	1	22.5	67.5	-2.2381384610647	0.326345385650599	0.2	0	0	0	345.545528884977	345.645508380607	0.0999794956296682	0.20002920832485
44009.75	100	459	3	75	1	1	90	1	2	0	1	112.5	157.5	0.74685420091089	0.667903201260081	0.2	0	0	0	345.845511745196	345.945496117231	0.0999843720346689	0.200003364589065
44084.75	100	460	3	76	1	1	90	1	2	0	1	112.5	67.5	-0.571837585663111	-0.940857046081426	0.2	0	0	0	346.145516304765	346.24552944582	0.10001314105466	0.200020187534392
44159.75	100	461	3	77	1	1	90	1	2	0	1	22.5	67.5	-0.304865056476997	2.67439761838541	0.2	0	0	0	346.445548414253	346.545532786287	0.0999843720346689	0.200018968433142
44234.75	100	462	3	78	1	1	90	1	2	0	2	67.5	22.5	-1.08849288898141	0.24787474520453	0.2	0	0	0	346.745560775511	346.845540271141	0.0999794956296682	0.200027989223599
44309.75	100	463	3	79	1	1	90	1	2	0	2	67.5	22.5	-0.100132894545145	2.58512833614189	0.2	0	0	0	347.045565822162	347.145549462643	0.0999836404807866	0.200025551021099
44384.75	100	464	3	80	1	1	90	1	2	0	1	22.5	157.5	-1.12046903149631	0.699409572983706	0.2	0	0	0	347.34556623688	347.445542319212	0.0999760823324323	0.200016774237156
44459.75	100	465	3	81	1	1	90	1	2	0	1	112.5	157.5	2.63192749865696	0.120364104853305	0.2	0	0	0	347.64556226274	347.745528105181	0.0999658424407244	0.200019943527877
44534.75	100	466	3	82	1	1	90	1	2	0	1	22.5	157.5	-2.76077192388579	2.97317927628282	0.2	0	0	0	347.945600955281	348.045551193878	0.099950238596648	0.200072850100696
44609.75	100	467	3	83	1	1	90	1	2	0	2	67.5	22.5	2.80111027947599	-1.88712296930687	0.2	0	0	0	348.245599662885	348.345581353176	0.0999816902913153	0.200048469007015
44684.75	100	468	3	84	1	1	90	1	2	0	1	22.5	67.5	0.0262034749927076	0.606275489793951	0.2	0	0	0	348.545584717765	348.645570795983	0.0999860782176256	0.200003364589065
44759.75	100	469	3	85	1	1	90	1	2	0	1	112.5	67.5	2.53653094062778	2.74860922196678	0.2	0	0	0	348.84559634747	348.945598273538	0.100001926068217	0.20002555148676
44834.75	100	470	3	86	1	1	90	1	2	0	1	112.5	67.5	1.92003935827138	-0.474570927633375	0.2	0	0	0	349.145626750309	349.245609171689	0.0999824213795364	0.200028476770967
44909.75	100	471	3	87	1	1	90	1	2	0	2	67.5	112.5	1.95410413506731	-2.17867400834292	0.2	0	0	0	349.445620094426	349.54561836319	0.099998268764466	0.20001092273742
44984.75	100	472	3	88	1	1	90	1	2	0	1	22.5	157.5	-1.16812756379633	-2.14936411485726	0.2	0	0	0	349.745628066827	349.845604636706	0.0999765698798001	0.200009703636169
45059.75	100	473	3	89	1	1	90	1	2	0	1	112.5	157.5	2.96214800845456	0.840374006235177	0.2	0	0	0	350.045646767132	350.145613584667	0.09996681753546	0.200042130425572
45134.75	100	474	3	90	1	1	90	1	2	0	1	112.5	67.5	-0.0667115234218754	0.263297133274334	0.2	0	0	0	350.345630358905	350.445621557068	0.0999911981634796	0.200016774237156
45209.75	100	475	3	91	1	1	90	1	2	0	1	112.5	67.5	-1.92975646199536	-2.40163182318818	0.2	0	0	0	350.645611268468	350.745622702874	0.100011434406042	0.199989711400121
45284.75	100	476	3	92	1	1	90	1	2	0	2	157.5	112.5	2.12477396874195	3.09343418853926	0.2	0	0	0	350.945632894523	351.045654081274	0.100021186750382	0.200010191649199
45360	100	477	3	93	1	1	90	1	2	0	1	22.5	67.5	1.87503282924906	-2.79948661324616	0.2	0	0	0	351.245673049707	351.345660103485	0.0999870537780225	0.200018968433142
45435	100	478	3	94	1	1	90	1	2	0	1	22.5	67.5	2.37788363551098	1.25035464541694	0.2	0	0	0	351.54569223756	351.645669782534	0.0999775449745357	0.200032134074718
45510	100	479	3	95	1	1	90	1	2	0	2	157.5	112.5	1.53135477252642	-0.323999164457498	0.2	0	0	0	351.845691920724	351.945673366543	0.0999814458191395	0.200022138189524
45585	100	480	3	96	1	1	90	1	2	0	2	67.5	22.5	1.01130334630924	-0.235357038342828	0.2	0	0	0	352.145697698928	352.245688897558	0.0999911986291409	0.20002433238551
45660	100	481	3	97	1	1	90	1	2	0	1	22.5	67.5	0.996444389240177	-0.769672096792456	0.2	0	0	0	352.445710060187	352.545675902162	0.0999658419750631	0.200021162629128
45735	100	482	3	98	1	1	90	1	2	0	1	112.5	157.5	-0.248940317683923	-1.42021531679801	0.2	0	0	0	352.745722664986	352.845698503312	0.0999758383259177	0.200046762824059
45810	100	483	3	99	1	1	90	1	2	0	2	157.5	112.5	2.28112438306453	1.43043654144537	0.2	0	0	0	353.045723810792	353.145706476178	0.0999826653860509	0.200025307480246
45885	100	484	3	100	1	1	90	1	2	0	1	22.5	157.5	0.134770588860903	-2.25057309981545	0.2	0	0	0	353.345734465402	353.445695675444	0.0999612100422382	0.200027989223599
45960	100	485	3	101	1	1	90	1	2	0	1	22.5	157.5	-1.04418055986161	2.20141713374677	0.2	0	0	0	353.645728541072	353.745722421445	0.0999938803724945	0.2000328656286
46035	100	486	3	102	1	1	90	1	2	0	1	112.5	67.5	-0.000167137280480567	-2.33621295600788	0.2	0	0	0	353.945750410669	354.045701136813	0.0999507261440158	0.200027989223599
46110	100	487	3	103	1	1	90	1	2	0	1	22.5	67.5	-2.32245256063061	0.808718071434925	0.2	0	0	0	354.245763990562	354.345726175699	0.0999621851369739	0.200062853749841
46185	100	488	3	104	1	1	90	1	2	0	2	67.5	22.5	2.26500908024851	0.316579466319109	0.2	0	0	0	354.545764161274	354.645737317856	0.0999731565825641	0.200037985574454
46260	100	489	3	105	1	1	90	1	2	0	1	112.5	67.5	-0.353669215685604	2.78233905950127	0.2	0	0	0	354.845755067188	354.945755286608	0.100000219419599	0.200017749331892
46335	100	490	3	106	1	1	90	1	2	0	1	22.5	157.5	0.162762473875018	1.96504019839781	0.2	0	0	0	355.145743778907	355.245763503015	0.100019724108279	0.199988492298871
46410	100	491	3	107	1	1	90	1	2	0	1	112.5	67.5	-1.47869370393232	-1.91704517762193	0.2	0	0	0	355.445787591394	355.545768306125	0.0999807147309184	0.200024088378996
46485	100	492	3	108	1	1	90	1	2	0	2	157.5	112.5	-1.78638155938227	0.8478227023024	0.2	0	0	0	355.745795076713	355.845762869343	0.0999677926301956	0.200026770588011
46560	100	493	3	109	1	1	90	1	2	0	1	22.5	157.5	0.482661844716206	1.93482718062228	0.2	0	0	0	356.045805730857	356.145758407656	0.0999526767991483	0.200042861513793
46635	100	494	3	110	1	1	90	1	2	0	2	67.5	112.5	-2.59783576350867	1.70645848619077	0.2	0	0	0	356.34580419492	356.445777351502	0.0999731565825641	0.200045787263662
46710	100	495	3	111	1	1	90	1	2	3	1	112.5	157.5	-2.85115964131642	-2.17252311749647	0.2	0	0	0	356.645795588382	356.745778253768	0.0999826653860509	0.200018236879259
46785	100	496	3	112	1	1	90	1	2	3	2	67.5	22.5	1.95922024921043	-1.69027282423431	0.2	0	0	0	356.945830624085	357.045811826363	0.0999812022782862	0.20005237031728
46860	100	497	3	113	1	1	90	1	2	3	2	157.5	22.5	-0.0705222678659925	0.0420740240376332	0.2	0	0	0	357.245841278229	357.345822724514	0.0999814462848008	0.200029451865703
46935	100	498	3	114	1	1	90	1	2	2	-1	135	90	2.23199678951024	1.42620076782851	0.2	0	0	0	357.545851201285	357.645831428468	0.0999802271835506	0.200028476770967
47010	100	499	3	115	1	1	90	1	2	3	1	112.5	67.5	0.198035822727037	-0.883130201771404	0.2	0	0	0	357.845857467502	357.945825991686	0.099968524184078	0.200026039034128
47085	100	500	3	116	1	1	90	1	2	3	1	22.5	67.5	-2.60864865710863	-0.858332281686549	0.2	0	0	0	358.145866414998	358.245849080384	0.0999826653860509	0.200040423311293
47160	100	501	3	117	1	1	90	1	2	3	2	67.5	112.5	0.469044999496415	-2.79921680841396	0.2	0	0	0	358.445873168763	358.545840961393	0.0999677926301956	0.200024088378996
47235	100	502	3	118	1	1	90	1	2	3	1	22.5	157.5	-2.70471585865133	-0.92718419773405	0.2	0	0	0	358.745887724217	358.845864781644	0.0999770574271679	0.200046762824059
47310	100	503	3	119	1	1	90	1	2	0	2	157.5	22.5	2.1984623677048	0.342959137906205	0.2	0	0	0	359.045891064219	359.145881531294	0.0999904670752585	0.200026282574981
47385	100	504	3	120	1	1	90	1	2	0	2	67.5	112.5	2.31690301993149	1.39288795599939	0.2	0	0	0	359.345891478937	359.445876826067	0.0999853471294045	0.200009947642684
47460	100	505	3	121	1	1	90	1	2	0	2	157.5	112.5	2.7081301734861	3.05201067653078	0.2	0	0	0	359.645923100878	359.745873583015	0.0999504821375012	0.200046274811029
47535	100	506	3	122	1	1	90	1	2	0	2	67.5	22.5	-0.00326625678140147	-1.83354478251689	0.2	0	0	0	359.945892307907	360.045882530976	0.0999902230687439	0.200018724892288
47610	100	507	3	123	1	1	90	1	2	0	1	112.5	67.5	-1.93925188633133	0.0870298101407445	0.2	0	0	0	360.245909057558	360.345884408336	0.0999753507785499	0.200026526581496
47685	100	508	3	124	1	1	90	1	2	0	2	67.5	112.5	1.17111565977445	1.90206068386677	0.2	0	0	0	360.545909715816	360.645904327743	0.0999946119263768	0.200025307480246
47760	100	509	3	125	1	1	90	1	2	0	2	157.5	22.5	-2.77268498240626	-2.14727708601235	0.2	0	0	0	360.84591720067	360.945900353603	0.0999831529334188	0.200012872926891
47835	100	510	3	126	1	1	90	1	2	0	2	157.5	112.5	1.68111123124592	0.241691238255612	0.2	0	0	0	361.145928342827	361.245907838456	0.0999794956296682	0.200027989223599
47910	100	511	3	127	1	1	90	1	2	0	2	157.5	112.5	1.4829343405458	-1.28424360745745	0.2	0	0	0	361.44593582768	361.545937266201	0.100001438520849	0.200027989223599
47985	100	512	3	128	1	1	90	1	2	0	1	22.5	67.5	-0.282076167296778	-0.848952528693585	0.2	0	0	0	361.745965011884	361.84593012277	0.099965110886842	0.200027745682746
48060	100	513	3	129	1	1	90	1	2	0	2	157.5	22.5	0.584767569532027	1.32983431159189	0.2	0	0	0	362.045950310305	362.14595272392	0.100002413615584	0.200020187534392
48135	100	514	3	130	1	1	90	1	2	0	1	112.5	157.5	-1.99263742029473	-0.3985639891698	0.2	0	0	0	362.345959989354	362.445943629835	0.0999836404807866	0.200007265433669
48210	100	515	3	131	1	1	90	1	2	0	1	22.5	67.5	1.13454798045333	1.26334015818066	0.2	0	0	0	362.645971131511	362.745947944932	0.0999768134206533	0.200027501676232
48285	100	516	3	132	1	1	90	1	2	3	1	22.5	157.5	0.0855484793274797	2.72598423400673	0.2	0	0	0	362.945983492769	363.045968839433	0.0999853466637433	0.200035547837615
48360	100	517	3	133	1	1	90	1	2	3	1	22.5	67.5	-2.86982000976418	1.13787509666735	0.2	0	0	0	363.246007800568	363.345980469137	0.099972668569535	0.200038961134851
48435	100	518	3	134	1	1	90	1	2	3	1	112.5	157.5	0.499144142335735	1.56510188777968	0.2	0	0	0	363.546003338881	363.645988929551	0.0999855906702578	0.200022869743407
48510	100	519	3	135	1	1	90	1	2	3	2	157.5	22.5	-1.83386238986842	-2.59169769328972	0.2	0	0	0	363.846014724579	363.945998365059	0.0999836404807866	0.200025795027614
49572.5	100	520	4	0	2	1	90	2	1	3	2	157.5	112.5	-1.39044397904241	-2.29766376723645	0.183333333333333	0	0	0	368.096129497979	368.196089732461	0.0999602344818413	-1
49672.5	100	521	4	1	2	1	90	2	1	3	2	157.5	22.5	-2.24687860173752	-0.182473196998202	0.3	0	0	0	368.496140128002	368.596095242538	0.0999551145359874	0.300050395540893
49755.75	100	522	4	2	2	1	90	2	1	3	1	22.5	67.5	-2.81099271778933	1.51274777682093	0.233333333333333	0	0	0	368.829460051842	368.929443204775	0.0999831529334188	0.233364809304476
49830.75	100	523	4	3	2	1	90	2	1	3	1	22.5	157.5	2.36955316208579	3.00784887701224	0.2	0	0	0	369.129496793728	369.22947555827	0.0999787645414472	0.200053588952869
49922.5	100	524	4	4	2	1	90	2	1	0	2	67.5	112.5	-1.9491207965048	2.84524985266524	0.266666666666667	0	0	0	369.496145004407	369.596126937773	0.0999819333665073	0.266669446136802
49985	100	525	4	5	2	1	90	2	1	0	2	67.5	22.5	0.784338527745371	-0.714381524884335	0.15	0	0	0	369.746147869155	369.84613248473	0.0999846155755222	0.150020931381732
50047.5	100	526	4	6	2	1	90	2	1	0	1	112.5	67.5	3.11759000628596	-1.17767445716095	0.15	0	0	0	369.996187549084	370.096165094059	0.0999775449745357	0.150055064354092
50122.5	100	527	4	7	2	1	90	2	1	0	2	157.5	112.5	2.42584974134642	-0.157063920277774	0.2	0	0	0	370.296191864647	370.396147222724	0.0999553580768406	0.200026770588011
50193.25	100	528	4	8	2	1	90	2	1	0	2	67.5	22.5	2.2787353662864	-1.17710398476651	0.183333333333333	0	0	0	370.579515213612	370.679512263741	0.0999970501288772	0.183367990888655
50289.25	100	529	4	9	2	1	90	2	1	0	1	22.5	67.5	2.92054304683069	0.156048031115641	0.283333333333333	0	0	0	370.962879010942	371.062829493545	0.0999504826031625	0.283366747200489
50360	100	530	4	10	2	1	90	2	1	0	1	22.5	157.5	1.05112782488128	3.0699823363062	0.183333333333333	0	0	0	371.246219914872	371.346182831097	0.0999629162251949	0.183390421327204
50430.75	100	531	4	11	2	1	90	2	1	0	1	112.5	67.5	2.74702583734488	1.35414222929264	0.183333333333333	0	0	0	371.529542045202	371.629525685217	0.0999836400151253	0.183359214104712
50518.25	100	532	4	12	2	1	90	2	1	0	1	112.5	157.5	-1.7841411434668	3.10704936447724	0.25	0	0	0	371.87955098087	371.979535839986	0.0999848591163754	0.250025295652449
50593.25	100	533	4	13	2	1	90	2	1	0	2	67.5	22.5	-1.89571389989733	0.418898379007177	0.2	0	0	0	372.179576507304	372.279541618191	0.099965110886842	0.200040667317808
50660	100	534	4	14	2	1	90	2	1	0	1	22.5	157.5	1.13854542512258	1.88679527920783	0.166666666666667	0	0	0	372.446250098292	372.546199605335	0.0999495070427656	0.166708480101079
50743.25	100	535	4	15	2	1	90	2	1	0	1	112.5	67.5	-1.10409356471043	2.01768212941772	0.233333333333333	0	0	0	372.779562951531	372.879549517762	0.0999865662306547	0.233363346196711
50810	100	536	4	16	2	1	90	2	1	0	1	112.5	157.5	1.99313680285418	-0.514307951769579	0.166666666666667	0	0	0	373.046264824457	373.146204091609	0.0999392671510577	0.166715306695551
50872.5	100	537	4	17	2	1	90	2	1	3	2	67.5	112.5	-1.68095261282116	-0.402416373686656	0.15	0	0	0	373.296271346509	373.396237432491	0.0999660859815776	0.150067254900932
50960	100	538	4	18	2	1	90	2	1	3	1	112.5	67.5	-2.0125167582465	-0.0126667035046175	0.25	0	0	0	373.646288083866	373.74627416255	0.0999860786832869	0.250050651375204
51026.75	100	539	4	19	2	1	90	2	1	3	1	22.5	157.5	-1.52923754346878	-2.20191597092025	0.166666666666667	0	0	0	373.912930467166	374.012947265524	0.100016798358411	0.166656304616481
51085	100	540	4	20	2	1	90	2	1	2	-1	135	90	-0.0945559288659101	0.357186773979799	0.133333333333333	0	0	0	374.146283817012	374.246267457493	0.0999836404807866	0.133336551487446
51155.75	100	541	4	21	2	1	90	2	1	3	1	22.5	67.5	-0.0991071083902426	-0.899777901772581	0.183333333333333	0	0	0	374.429621307645	374.529616163112	0.0999948554672301	0.183353850152344
51235	100	542	4	22	2	1	90	2	1	3	2	157.5	112.5	0.342169536853745	0.21065369070598	0.216666666666667	0	0	0	374.746303663123	374.846279257908	0.0999755947850645	0.216687500011176
51335	100	543	4	23	2	1	90	2	1	3	1	112.5	157.5	-2.24819797454375	-1.67220630910247	0.3	0	0	0	375.146305516362	375.24628866883	0.0999831524677575	0.300026258453727
51389.25	100	544	4	24	2	1	90	2	1	3	2	67.5	22.5	2.84525426605817	-0.8857025264184	0.116666666666667	0	0	0	375.36297838809	375.462975437753	0.0999970496632159	0.116689719259739
51443.25	100	545	4	25	2	1	90	2	1	0	1	22.5	67.5	-0.386295816171158	2.09198112599229	0.116666666666667	0	0	0	375.579666132107	375.67963928869	0.0999731565825641	0.116690694354475
51539.25	100	546	4	26	2	1	90	2	1	0	2	157.5	22.5	-2.82639623215551	-2.12494610393116	0.283333333333333	0	0	0	375.963001403492	376.062978948466	0.0999775449745357	0.283362114802003
51626.75	100	547	4	27	2	1	90	2	1	0	2	67.5	112.5	-0.754819035730792	-0.428179464401007	0.25	0	0	0	376.313024479896	376.413007876836	0.0999833969399333	0.25004553142935
51714.25	100	548	4	28	2	1	90	2	1	0	1	112.5	67.5	1.77835300258485	2.52475988198235	0.25	0	0	0	376.663037072867	376.763002183754	0.099965110886842	0.250029196031392
51776.75	100	549	4	29	2	1	90	2	1	0	2	157.5	112.5	0.220245084994295	-2.40360461548257	0.15	0	0	0	376.913039937615	377.013008949347	0.0999690117314458	0.150037753861398
51830.75	100	550	4	30	2	1	90	2	1	0	1	112.5	67.5	-1.20425772031649	-2.09845294638707	0.116666666666667	0	0	0	377.129695986398	377.22968401527	0.0999880288727582	0.116687037050724
51918.25	100	551	4	31	2	1	90	2	1	0	1	22.5	67.5	0.475627554487828	-1.33007179767016	0.25	0	0	0	377.479717356153	377.579698558431	0.0999812022782862	0.25003334088251
51968.25	100	552	4	32	2	1	90	2	1	0	1	22.5	157.5	-0.853196164849516	0.263296191717528	0.1	0	0	0	377.679711455945	377.77969290223	0.0999814462848008	0.100012897513807
52030.75	100	553	4	33	2	1	90	2	1	0	1	112.5	157.5	0.0338565800105712	2.52463959415297	0.15	0	0	0	377.929718953092	378.029699424282	0.0999804711900651	0.150026050861925
52114.25	100	554	4	34	2	1	90	2	1	0	2	67.5	112.5	-2.47624703866842	-1.01444396339723	0.233333333333333	0	0	0	378.263054480776	378.363062989898	0.100008509121835	0.233355056494474
52193.5	100	555	4	35	2	1	90	2	1	0	1	22.5	67.5	0.744818645194716	0.103573981536632	0.216666666666667	0	0	0	378.579756585415	378.679719014093	0.0999624286778271	0.216693595517427
52289.25	100	556	4	36	2	1	90	2	1	0	1	112.5	157.5	0.484234872346891	1.49117621726816	0.283333333333333	0	0	0	378.963076740503	379.063076716382	0.0999999758787453	0.283357726410031
52339.25	100	557	4	37	2	1	90	2	1	0	1	112.5	67.5	0.511106965512412	-1.16174442577712	0.1	0	0	0	379.163102779537	379.263092759065	0.0999899795278907	0.100026063155383
52414.25	100	558	4	38	2	1	90	2	1	0	2	67.5	112.5	2.13550685521627	2.5332438453609	0.2	0	0	0	379.463110508397	379.563087809831	0.0999773014336824	0.200017749331892
52501.75	100	559	4	39	2	1	90	2	1	0	1	22.5	157.5	1.79660233630044	-0.926947568767873	0.25	0	0	0	379.813115299214	379.913094063289	0.0999787640757859	0.250027489382774
52581	100	560	4	40	2	1	90	2	1	0	1	112.5	157.5	2.21053178153363	0.413618412464444	0.216666666666667	0	0	0	380.129800580908	380.22977276193	0.0999721810221672	0.21670651761815
52681	100	561	4	41	2	1	90	2	1	0	2	67.5	112.5	-0.0801319722719041	-1.55758530164098	0.3	0	0	0	380.529799751937	380.629785830155	0.0999860782176256	0.300026990007609
52739.25	100	562	4	42	2	1	90	2	1	0	1	22.5	67.5	1.57877366738533	2.38470383242711	0.133333333333333	0	0	0	380.763143349439	380.863119919319	0.0999765698798001	0.133357519283891
52831	100	563	4	43	2	1	90	2	1	0	2	157.5	22.5	-2.62091860233178	-0.983491385068222	0.266666666666667	0	0	0	381.129813502543	381.229797874577	0.0999843720346689	0.266693583223969
52881	100	564	4	44	2	1	90	2	1	0	2	157.5	112.5	0.812320124209667	-1.55489020952596	0.1	0	0	0	381.329813941382	381.429791242816	0.0999773014336824	0.100016066804528
52956	100	565	4	45	2	1	90	2	1	0	1	22.5	157.5	0.516610945586971	-2.1230980773181	0.2	0	0	0	381.629837030079	381.72981774481	0.0999807147309184	0.200045787263662
53006	100	566	4	46	2	1	90	2	1	0	1	22.5	67.5	3.10543250349716	0.104335146489595	0.1	0	0	0	381.829847465269	381.929822572507	0.0999751072376966	0.100029720459133
53085	100	567	4	47	2	1	90	2	1	0	1	22.5	157.5	1.86390908587183	2.57802706978271	0.216666666666667	0	0	0	382.146518605761	382.246503952891	0.0999853471294045	0.216696033254266
53139.25	100	568	4	48	2	1	90	2	1	0	2	157.5	22.5	2.07047010253991	-3.04090265008646	0.116666666666667	0	0	0	382.363188795745	382.463171460666	0.0999826649203897	0.116684842854738
53206	100	569	4	49	2	1	90	2	1	0	1	112.5	67.5	-2.03469949990211	-1.35417471057057	0.166666666666667	0	0	0	382.629848489538	382.729846514296	0.0999980247579515	0.166677028872073
53264.25	100	570	4	50	2	1	90	2	1	0	2	67.5	112.5	-2.33661364708787	-0.373094003931794	0.133333333333333	0	0	0	382.863203546032	382.963186698966	0.0999831529334188	0.133357031736523
53356	100	571	4	51	2	1	90	2	1	0	1	112.5	67.5	2.34508172973684	-1.64861413930138	0.266666666666667	0	0	0	383.22987735644	383.329863434657	0.0999860782176256	0.266690657474101
53426.75	100	572	4	52	2	1	90	2	1	0	2	157.5	112.5	2.80682727591664	2.39379108158324	0.183333333333333	0	0	0	383.513214603066	383.613198974635	0.0999843715690076	0.18335116840899
53489.25	100	573	4	53	2	1	90	2	1	0	1	22.5	67.5	-0.969909146502389	-1.99646978168433	0.15	0	0	0	383.763226732612	383.863203302491	0.0999765698798001	0.150027757976204
53576.75	100	574	4	54	2	1	90	2	1	0	2	157.5	112.5	2.77392705913486	-0.400777252127003	0.25	0	0	0	384.113214700483	384.213199803606	0.09998510312289	0.250011397991329
53668.5	100	575	4	55	2	1	90	2	1	0	2	157.5	112.5	-3.13479129441887	-1.89128414677775	0.266666666666667	0	0	0	384.479915329721	384.579872882459	0.0999575527384877	0.266715526115149
53768.5	100	576	4	56	2	1	90	2	1	0	1	22.5	157.5	0.421199476739955	-1.70025944141093	0.3	0	0	0	384.879905235954	384.979888388887	0.0999831529334188	0.300032353494316
53839.25	100	577	4	57	2	1	90	2	1	0	1	22.5	67.5	-1.51436796686879	-0.680906412515907	0.183333333333333	0	0	0	385.163266619667	385.263236606494	0.0999699868261814	0.183378230780363
53906	100	578	4	58	2	1	90	2	1	0	2	157.5	22.5	-1.1056813102408	-1.82527893611184	0.166666666666667	0	0	0	385.429926069453	385.529926288873	0.100000219419599	0.166689462959766
54001.75	100	579	4	59	2	1	90	2	1	0	2	67.5	22.5	-0.1639495085119	-0.628440678352944	0.283333333333333	0	0	0	385.813261584844	385.913249857724	0.0999882728792727	0.283335295971483
54064.25	100	580	4	60	2	1	90	2	1	0	1	22.5	157.5	-1.98985735216268	-2.31133182926872	0.15	0	0	0	386.063273226842	386.163271495607	0.099998268764466	0.150023369118571
54114.25	100	581	4	61	2	1	90	2	1	0	2	67.5	112.5	0.370466034913722	-1.28344490643804	0.1	0	0	0	386.263298534323	386.36326071946	0.0999621851369739	0.10002703871578
54201.75	100	582	4	62	2	1	90	2	1	0	2	157.5	22.5	-0.747613584732279	1.74665027372184	0.25	0	0	0	386.613292841241	386.713266485371	0.0999736441299319	0.25003212178126
54281	100	583	4	63	2	1	90	2	1	0	2	157.5	112.5	-1.79248298387306	-2.75820008679095	0.216666666666667	0	0	0	386.929959349334	387.029951523058	0.0999921737238765	0.216692863963544
54381	100	584	4	64	2	1	90	2	1	0	2	157.5	22.5	1.61205164838262	0.853916190864083	0.3	0	0	0	387.329974124208	387.429952157196	0.0999780329875648	0.300022601149976
54447.5	100	585	4	65	2	1	90	2	1	0	2	67.5	112.5	-0.208587481199396	0.772234371114869	0.166666666666667	0	0	0	387.596661612391	387.696621846873	0.0999602344818413	0.166709455195814
54539.25	100	586	4	66	2	1	90	2	1	0	1	112.5	157.5	-2.81902672885034	1.44003224687312	0.266666666666667	0	0	0	387.96331884386	388.063334910665	0.100016066804528	0.266696996986866
54639.25	100	587	4	67	2	1	90	2	1	0	2	157.5	112.5	2.28413981933488	-0.648350077357314	0.3	0	0	0	388.363351416774	388.463317990303	0.0999665735289454	0.300016506109387
54735	100	588	4	68	2	1	90	2	1	0	2	157.5	112.5	-2.57637334390353	2.93383579843236	0.283333333333333	0	0	0	388.746719114948	388.846680080984	0.0999609660357237	0.283401124645025
54801.75	100	589	4	69	2	1	90	2	1	0	1	22.5	67.5	2.04994851804219	0.151826902371095	0.166666666666667	0	0	0	389.013360766694	389.113355134614	0.0999943679198623	0.166680685710162
54897.5	100	590	4	70	2	1	90	2	1	0	1	112.5	67.5	0.645894827909237	0.237893203074349	0.283333333333333	0	0	0	389.396695794538	389.496680897661	0.09998510312289	0.283340659923851
54951.75	100	591	4	71	2	1	90	2	1	0	2	67.5	112.5	0.874942437006117	-0.731348248418993	0.116666666666667	0	0	0	389.613365252968	389.713351087645	0.0999858346767724	0.11668435530737
55031	100	592	4	72	2	1	90	2	1	0	2	157.5	22.5	1.80116581548362	-1.60941163414093	0.216666666666667	0	0	0	389.930061262101	390.030043195467	0.0999819333665073	0.216710174456239
55093.5	100	593	4	73	2	1	90	2	1	0	2	157.5	22.5	-1.14806989905796	3.01573159460173	0.15	0	0	0	390.180052667856	390.280054106377	0.100001438520849	0.150009472388774
55147.5	100	594	4	74	2	1	90	2	1	0	1	112.5	157.5	-1.00663134771742	-1.70132205626957	0.116666666666667	0	0	0	390.396724564023	390.496707716957	0.0999831529334188	0.116670457646251
55222.5	100	595	4	75	2	1	90	2	1	0	1	112.5	67.5	0.166097404793297	-2.85772504699693	0.2	0	0	0	390.696730342228	390.79671227606	0.0999819338321686	0.200022625271231
