onset	duration	total_event_number	stream_number	event_num_per_stream	timing_predictability	target_col	target_ori	n_targets	n_distractors	is_target	ori_pair_num	att_ori	unatt_ori	gabor_phase_att	gabor_phase_unatt	blank_dur	response	rt	correct	time_stimon	time_stimoff	stim_dur	ISI_dur
26880.25	100	0	0	0	2	2	0	1	1	3	1	112.5	67.5	2.95999613047354	-2.17797988014525	0.283333333333333	0	0	0	32.4003083216958	32.5002512459178	0.0999429242219776	-1
26967.75	100	1	0	1	2	2	0	1	1	3	1	22.5	157.5	0.791604787091944	1.78308714760365	0.25	0	0	0	32.7503187202383	32.8502479910385	0.0999292708002031	0.250067474320531
27026.25	100	2	0	2	2	2	0	1	1	3	2	157.5	22.5	2.5866218799572	0.886541213403255	0.133333333333333	0	0	0	32.9836059978697	33.0835925641004	0.0999865662306547	0.133358006831259
27105.25	100	3	0	3	2	2	0	1	1	3	2	67.5	112.5	-1.42025036466977	2.28601738512315	0.216666666666667	0	0	0	33.3002795765642	33.4002612663899	0.099981689825654	0.216687012463808
27180.25	100	4	0	4	2	2	0	1	1	0	1	112.5	67.5	-3.1319577552254	2.51987943498092	0.2	0	0	0	33.6003199757542	33.7002984962892	0.0999785205349326	0.200058709364384
27247	100	5	0	5	2	2	0	1	1	0	2	67.5	22.5	2.40271199199413	-2.46724564255356	0.166666666666667	0	0	0	33.8669647972565	33.9669452679809	0.0999804707244039	0.166666300967336
27309.5	100	6	0	6	2	2	0	1	1	0	1	112.5	67.5	-2.95387725619637	1.84541947319752	0.15	0	0	0	34.1169722944032	34.2169539842289	0.099981689825654	0.150027026422322
27409.5	100	7	0	7	2	2	0	1	1	0	1	22.5	157.5	3.10160488242902	-2.29141331499501	0.3	0	0	0	34.5170107188169	34.6169653458055	0.0999546269886196	0.300056734587997
27480.25	100	8	0	8	2	2	0	1	1	0	2	157.5	22.5	-0.278063495341569	-2.39569454084494	0.183333333333333	0	0	0	34.8003355308902	34.9003213655669	0.0999858346767724	0.183370185084641
27542.75	100	9	0	9	2	2	0	1	1	0	2	67.5	112.5	-2.75653950685228	-0.636862063247445	0.15	0	0	0	35.0503381518647	35.1503490989562	0.100010947091505	0.150016786297783
27609.5	100	10	0	10	2	2	0	1	1	0	2	157.5	22.5	-1.41586445950513	-0.0704689177705218	0.166666666666667	0	0	0	35.3170063789003	35.4169834363274	0.0999770574271679	0.166657279944047
27663.75	100	11	0	11	2	2	0	1	1	0	1	112.5	67.5	1.39051988333204	-2.70335811768013	0.116666666666667	0	0	0	35.5336714487057	35.6336880032904	0.100016554584727	0.11668801237829
27751.25	100	12	0	12	2	2	0	1	1	0	1	112.5	67.5	-0.72840217593565	-1.40954994932809	0.25	0	0	0	35.8836845289916	35.9836693883408	0.0999848593492061	0.249996525701135
27843	100	13	0	13	2	2	0	1	1	0	2	67.5	112.5	0.77808597621023	-2.03896644448108	0.266666666666667	0	0	0	36.2503866211046	36.3503758693114	0.099989248206839	0.266717232763767
27897	100	14	0	14	2	2	0	1	1	0	1	22.5	67.5	-2.50114562205905	-2.29383789244881	0.116666666666667	0	0	0	36.467059492832	36.5676689925604	0.100609499728307	0.116683623520657
27997	100	15	0	15	2	2	0	1	1	0	2	157.5	112.5	2.1089106761181	-2.52064521446502	0.3	0	0	0	36.867071341956	36.9670440109912	0.0999726690351963	0.299402349395677
28055.5	100	16	0	16	2	2	0	1	1	0	2	67.5	112.5	-0.797004410438847	-2.99228106473593	0.133333333333333	0	0	0	37.1003812940326	37.2003993114922	0.100018017459661	0.133337283041328
28155.5	100	17	0	17	2	2	0	1	1	0	2	157.5	22.5	2.09089313815651	-1.77468906673059	0.3	0	0	0	37.5004292270169	37.6003838540055	0.0999546269886196	0.300029915524647
28243	100	18	0	18	2	2	0	1	1	0	2	157.5	22.5	-2.21603671554322	-1.08522582692329	0.25	0	0	0	37.8504015910439	37.9503859628458	0.0999843718018383	0.250017737038434
28305.5	100	19	0	19	2	2	0	1	1	0	1	112.5	157.5	1.05117095039066	-0.503519835688947	0.15	0	0	0	38.1004086006433	38.2004249114543	0.100016310811043	0.15002263779752
28359.5	100	20	0	20	2	2	0	1	1	0	2	67.5	112.5	-0.194689269555198	1.22173571574226	0.116666666666667	0	0	0	38.3171107294038	38.4170929070096	0.0999821776058525	0.116685817949474
28455.5	100	21	0	21	2	2	0	1	1	0	1	22.5	67.5	-0.600545670569737	0.703607400087769	0.283333333333333	0	0	0	38.7004547782708	38.8004086737055	0.0999538954347372	0.28336187126115
28543	100	22	0	22	2	2	0	1	1	0	2	67.5	112.5	-3.02011521576194	-0.0766348371235637	0.25	0	0	0	39.0504307996016	39.150420535123	0.0999897355213761	0.250022125896066
28638.75	100	23	0	23	2	2	0	1	1	0	2	67.5	112.5	0.199250747970066	-1.11281828426116	0.283333333333333	0	0	0	39.43380532437	39.5337648277637	0.0999595033936203	0.283384789247066
28713.75	100	24	0	24	2	2	0	1	1	0	2	157.5	112.5	2.12401287295216	0.720344394490405	0.2	0	0	0	39.7337881845888	39.8337796269916	0.0999914424028248	0.200023356825113
28780.5	100	25	0	25	2	2	0	1	1	0	1	22.5	67.5	-2.48892497796951	-1.9296314156209	0.166666666666667	0	0	0	40.0004790860694	40.1004485853482	0.0999694992788136	0.16669945907779
28876.25	100	26	0	26	2	2	0	1	1	3	2	157.5	22.5	-0.340771136818242	-2.02733619230392	0.283333333333333	0	0	0	40.3838224033825	40.4837979979347	0.0999755945522338	0.283373818034306
28963.75	100	27	0	27	2	2	0	1	1	3	1	22.5	157.5	-3.06333169084141	-2.43173123667689	0.25	0	0	0	40.7338274379726	40.8338079089299	0.0999804709572345	0.250029440037906
29038.75	100	28	0	28	2	2	0	1	1	3	2	157.5	112.5	3.1046163080337	1.06345927781988	0.2	0	0	0	41.0338602792472	41.1338366053533	0.0999763261061162	0.20005237031728
29105.5	100	29	0	29	2	2	0	1	1	1	-1	0	135	2.95001330835594	-2.2664746189412	0.166666666666667	0	0	0	41.3005307004787	41.400494836038	0.0999641355592757	0.166694095125422
29159.5	100	30	0	30	2	2	0	1	1	3	1	22.5	67.5	1.121008449407	-1.74140227382887	0.116666666666667	0	0	0	41.5171774844639	41.6171599058434	0.0999824213795364	0.116682648425922
29259.5	100	31	0	31	2	2	0	1	1	3	1	112.5	67.5	-0.124983469118587	-0.932615590457811	0.3	0	0	0	41.9171942097601	42.0171929663047	0.0999987565446645	0.300034303916618
29343	100	32	0	32	2	2	0	1	1	3	2	67.5	112.5	-2.69939640678919	0.401877910495267	0.233333333333333	0	0	0	42.2504968231078	42.3505189854186	0.100022162310779	0.233303856803104
29393	100	33	0	33	2	2	0	1	1	3	1	112.5	157.5	-2.38090168324145	0.927031163564053	0.1	0	0	0	42.4505311516114	42.5505101594608	0.0999790078494698	0.100012166192755
29472	100	34	0	34	2	2	0	1	1	0	1	112.5	157.5	1.28807625228091	0.580117277730407	0.216666666666667	0	0	0	42.7672061931808	42.8671898334287	0.0999836402479559	0.216696033719927
29534.5	100	35	0	35	2	2	0	1	1	0	2	157.5	22.5	1.85040933847775	0.603865237297991	0.15	0	0	0	43.0172431911342	43.1171936735045	0.0999504823703319	0.150053357705474
29588.75	100	36	0	36	2	2	0	1	1	0	1	22.5	157.5	3.07298965915558	-1.93123782752521	0.116666666666667	0	0	0	43.2339094800409	43.3338653261308	0.0999558460898697	0.116715806536376
29647	100	37	0	37	2	2	0	1	1	0	1	112.5	67.5	2.27279005085223	2.59274765198063	0.133333333333333	0	0	0	43.4672455196269	43.5672162380069	0.0999707183800638	0.133380193496123
29709.5	100	38	0	38	2	2	0	1	1	0	1	22.5	67.5	-0.390090484316807	1.48973549893674	0.15	0	0	0	43.7172554547433	43.8172161770053	0.0999607222620398	0.150039216736332
29768	100	39	0	39	2	2	0	1	1	0	2	157.5	22.5	-1.53753543063563	-0.585096953401187	0.133333333333333	0	0	0	43.9505700392183	44.0505819614045	0.100011922186241	0.133353862212971
29834.5	100	40	0	40	2	2	0	1	1	0	1	112.5	157.5	0.262889223942123	-0.649971366926054	0.166666666666667	0	0	0	44.2172706928104	44.3172282455489	0.0999575527384877	0.166688731405884
29897	100	41	0	41	2	2	0	1	1	0	2	67.5	22.5	-0.968203924672049	0.483916529666253	0.15	0	0	0	44.4672503957991	44.5672325731721	0.0999821773730218	0.150022150250152
29972	100	42	0	42	2	2	0	1	1	0	1	22.5	67.5	0.281487098473612	-2.39083882843198	0.2	0	0	0	44.7672612939496	44.8672515172511	0.0999902233015746	0.200028720777482
30043	100	43	0	43	2	2	0	1	1	0	1	112.5	157.5	2.41315917540522	0.905866823874839	0.183333333333333	0	0	0	45.0506170699373	45.1505955904722	0.0999785205349326	0.183365552686155
30109.5	100	44	0	44	2	2	0	1	1	0	1	22.5	157.5	-0.295616769072723	2.53154009998715	0.166666666666667	0	0	0	45.3172896855976	45.4172691812273	0.0999794956296682	0.166694095125422
30209.5	100	45	0	45	2	2	0	1	1	0	2	67.5	112.5	3.02353979367033	-0.854846006899074	0.3	0	0	0	45.7172927577049	45.8172820056789	0.0999892479740083	0.300023576477543
30268	100	46	0	46	2	2	0	1	1	0	2	157.5	112.5	1.37197657360994	-0.00636125255554365	0.133333333333333	0	0	0	45.9506356238853	46.0506170699373	0.0999814460519701	0.133353618206456
30330.5	100	47	0	47	2	2	0	1	1	0	2	157.5	112.5	-2.85419771555648	-1.55130248706374	0.15	0	0	0	46.2006609193049	46.3006445595529	0.0999836402479559	0.150043849367648
30413.75	100	48	0	48	2	2	0	1	1	0	1	22.5	67.5	1.55111884976204	2.57345174894985	0.233333333333333	0	0	0	46.5339881572872	46.6339686282445	0.0999804709572345	0.233343597734347
30505.5	100	49	0	49	2	2	0	1	1	0	2	67.5	22.5	1.01498829200118	-0.774827735137356	0.266666666666667	0	0	0	46.9006722075865	47.0006585298106	0.0999863222241402	0.266703579341993
30555.5	100	50	0	50	2	2	0	1	1	0	1	22.5	67.5	0.766794384975647	-0.875656298823868	0.1	0	0	0	47.1006670389324	47.2006714029703	0.100004364037886	0.100008509121835
30634.5	100	51	0	51	2	2	0	1	1	0	2	67.5	22.5	-3.12093416585314	1.33643921867313	0.216666666666667	0	0	0	47.4173393985257	47.5173225512262	0.0999831527005881	0.216667995555326
30713.75	100	52	0	52	2	2	0	1	1	0	1	112.5	67.5	2.38065802975037	-0.801287673458761	0.216666666666667	0	0	0	47.7340124894399	47.8339941794984	0.0999816900584847	0.216689938213676
30784.5	100	53	0	53	2	2	0	1	1	0	1	22.5	67.5	-0.0295281210143044	2.54456773621526	0.183333333333333	0	0	0	48.0173597321846	48.1173392278142	0.0999794956296682	0.183365552686155
30863.75	100	54	0	54	2	2	0	1	1	0	2	157.5	112.5	0.231121828152736	-0.5576637801321	0.216666666666667	0	0	0	48.334033310879	48.4340196331032	0.0999863222241402	0.216694083064795
30959.5	100	55	0	55	2	2	0	1	1	0	1	112.5	67.5	-2.0717612312742	0.55937540921795	0.283333333333333	0	0	0	48.7173632185441	48.8173758722842	0.100012653740123	0.283343585440889
31009.5	100	56	0	56	2	2	0	1	1	0	1	112.5	157.5	-2.91894544826386	-1.22576635862352	0.1	0	0	0	48.91739657172	49.0173585130833	0.09996194136329	0.100020699435845
31084.5	100	57	0	57	2	2	0	1	1	0	2	67.5	112.5	-3.0540635797363	0.561750695924969	0.2	1	0	0	49.2174016186036	49.3173837962095	0.0999821776058525	0.200043105520308
31138.75	100	58	0	58	2	2	0	1	1	0	2	157.5	22.5	-1.82304906680659	-0.174598395450388	0.116666666666667	0	0	0	49.4340520598926	49.5340339934919	0.0999819335993379	0.116668263683096
31188.75	100	59	0	59	2	2	0	1	1	0	2	157.5	112.5	-1.23054385580067	-2.4878240455051	0.1	0	0	0	49.6340539616067	49.7340683219954	0.100014360388741	0.100019968114793
31284.5	100	60	0	60	2	2	0	1	1	0	2	157.5	112.5	-2.17389232045009	2.44387176195553	0.283333333333333	1	0	0	50.0173977664672	50.1173806753941	0.0999829089269042	0.283329444471747
31334.5	100	61	0	61	2	2	0	1	1	0	1	112.5	67.5	-2.77583063252471	-2.13367573863958	0.1	0	0	0	50.2174057634547	50.3174135410227	0.100007777567953	0.100025088060647
31418	100	62	0	62	2	2	0	1	1	0	1	112.5	67.5	1.42883313207877	0.476068345400102	0.233333333333333	0	0	0	50.5507466548588	50.6507224934176	0.0999758385587484	0.233333113836125
31501.25	100	63	0	63	2	2	0	1	1	0	2	157.5	22.5	1.27226516400469	1.11312678099469	0.233333333333333	0	0	0	50.8841199730523	50.9841087332461	0.0999887601938099	0.233397479634732
31559.75	100	64	0	64	2	2	0	1	1	0	1	22.5	157.5	2.40048927966936	-0.1968710512188	0.133333333333333	0	0	0	51.1174618639052	51.217416247353	0.0999543834477663	0.133353130659088
31651.25	100	65	0	65	2	2	0	1	1	0	2	157.5	22.5	-1.7741242112379	-1.08295148416655	0.266666666666667	0	0	0	51.4841037353035	51.5840866442304	0.0999829089269042	0.266687487950549
31747.25	100	66	0	66	2	2	0	1	1	0	1	22.5	157.5	1.43511679212061	-0.291207282261246	0.283333333333333	0	0	0	51.8674499783665	51.9674323995132	0.0999824211467057	0.283363334136084
31847.25	100	67	0	67	2	2	0	1	1	0	1	112.5	67.5	0.593621119424715	3.13872395247461	0.3	0	0	0	52.2674923036247	52.3674447364174	0.0999524327926338	0.300059904111549
31918	100	68	0	68	2	2	0	1	1	0	2	157.5	112.5	-2.57544987262651	-3.06684639409863	0.183333333333333	0	0	0	52.5508251616266	52.6507780819666	0.0999529203400016	0.18338042520918
32009.75	100	69	0	69	2	2	0	1	1	0	1	112.5	67.5	2.35620131688218	2.4193545906455	0.266666666666667	0	0	0	52.9174999471288	53.0174950466026	0.0999950994737446	0.266721865162253
32105.5	100	70	0	70	2	2	0	1	1	0	2	67.5	22.5	-0.89668730029842	0.673853495093689	0.283333333333333	0	0	0	53.3008500910364	53.4008147143759	0.0999646233394742	0.283355044433847
32159.75	100	71	0	71	2	2	0	1	1	0	1	112.5	157.5	-1.97960982097151	-0.118937887888789	0.116666666666667	0	0	0	53.5175012636464	53.6174797839485	0.099978520302102	0.116686549270526
32226.25	100	72	0	72	2	2	0	1	1	0	1	112.5	67.5	-1.9900293495348	0.86595359804161	0.166666666666667	0	0	0	53.7841641269624	53.8841492300853	0.09998510312289	0.166684343013912
32301.25	100	73	0	73	2	2	0	1	1	0	2	67.5	22.5	2.66624107100741	0.877967875597087	0.2	0	0	0	54.0841747813392	54.1841745132115	0.0999997318722308	0.20002555125393
32363.75	100	74	0	74	2	2	0	1	1	0	1	22.5	157.5	-1.75446391387713	2.07532076030315	0.15	0	0	0	54.3341842289083	54.4341678693891	0.0999836404807866	0.150009715696797
32443	100	75	0	75	2	2	0	1	1	0	2	157.5	22.5	-0.726857757811926	2.99417984434105	0.216666666666667	0	0	0	54.6508887715172	54.7508702175692	0.0999814460519701	0.216720902128145
32518	100	76	0	76	2	2	0	1	1	0	1	22.5	157.5	0.295243253459563	0.0950508447280471	0.2	0	0	0	54.9509001574479	55.0508482016157	0.0999480441678315	0.200029939878732
32576.25	100	77	0	77	2	2	0	1	1	0	1	22.5	67.5	-0.884991326626066	-0.93433773610014	0.133333333333333	0	0	0	55.1842208369635	55.2841969192959	0.0999760823324323	0.133372635347769
32676.25	100	78	0	78	2	2	0	1	1	0	1	22.5	67.5	0.980015222256267	-0.86427364286908	0.3	0	0	0	55.584220251767	55.6842041360214	0.0999838842544705	0.300023332471028
32726.25	100	79	0	79	2	2	0	1	1	0	2	157.5	22.5	-2.59079908268801	2.57997213837743	0.1	0	0	0	55.7842275174335	55.8842092072591	0.099981689825654	0.100023381412029
32809.75	100	80	0	80	2	2	0	1	1	0	2	67.5	112.5	-0.440244899807077	-0.125438997644681	0.233333333333333	0	0	0	56.1175688963849	56.2175515615381	0.0999826651532203	0.233359689125791
32859.75	100	81	0	81	2	2	0	1	1	0	2	67.5	22.5	0.531217429379697	-2.69794472729587	0.1	0	0	0	56.3175744554028	56.4175602898467	0.0999858344439417	0.100022893864661
32926.25	100	82	0	82	2	2	0	1	1	0	2	157.5	112.5	0.747486873277155	0.544483156890707	0.166666666666667	0	0	0	56.5842687699478	56.6842553361785	0.0999865662306547	0.166708480101079
32976.25	100	83	0	83	2	2	0	1	1	0	2	67.5	112.5	0.684610056671275	-2.41950794480295	0.1	0	0	0	56.7842828622088	56.8842343196739	0.0999514574650675	0.100027526030317
33068	100	84	0	84	2	2	0	1	1	0	1	22.5	67.5	-1.44984824186715	-0.962863242749856	0.266666666666667	0	0	0	57.1509537466336	57.2509130062535	0.0999592596199363	0.266719426959753
33138.75	100	85	0	85	2	2	0	1	1	0	2	67.5	112.5	0.86808247974058	0.947485377905749	0.183333333333333	0	0	0	57.4342756331898	57.534257567022	0.0999819338321686	0.183362626936287
33222.25	100	86	0	86	2	2	0	1	1	0	2	157.5	112.5	2.96694177171961	0.70700025410411	0.233333333333333	0	0	0	57.7676194503438	57.8675977268722	0.0999782765284181	0.233361883321777
33293	100	87	0	87	2	2	0	1	1	0	1	22.5	157.5	-0.110278759751945	0.229254863670374	0.183333333333333	0	0	0	58.050960597815	58.1509352172725	0.0999746194574982	0.183362870942801
33384.75	100	88	0	88	2	2	0	1	1	3	1	22.5	157.5	0.904741124536562	2.07056490448756	0.266666666666667	0	0	0	58.4176483051851	58.5176187797915	0.0999704746063799	0.266713087912649
33438.75	100	89	0	89	2	2	0	1	1	3	2	67.5	22.5	2.11722818080448	0.681278352400246	0.116666666666667	0	0	0	58.6343065481633	58.7343140819576	0.100007533794269	0.116687768371776
33501.25	100	90	0	90	2	2	0	1	1	3	2	157.5	22.5	-1.55609334372373	2.95450719362624	0.15	0	0	0	58.8843145330902	58.9843149962835	0.100000463193282	0.150000451132655
33572.25	100	91	0	91	2	2	0	1	1	2	-1	45	0	-1.47256151163846	1.95715640530491	0.183333333333333	0	0	0	59.1676742099226	59.2676593132783	0.0999851033557206	0.183359213639051
33659.75	100	92	0	92	2	2	0	1	1	3	2	157.5	112.5	2.95453301054827	-1.48154119813216	0.25	0	0	0	59.517666810425	59.617646062281	0.0999792518559843	0.250007497146726
33718	100	93	0	93	2	2	0	1	1	3	1	112.5	67.5	-1.25219824561659	1.76881717015077	0.133333333333333	0	0	0	59.7510045566596	59.8509808827657	0.0999763261061162	0.133358494378626
33801.25	100	94	0	94	2	2	0	1	1	3	1	22.5	67.5	-0.464392471903621	-0.87347778273196	0.233333333333333	0	0	0	60.0843415472191	60.1843256752472	0.0999841280281544	0.233360664453357
33897.25	100	95	0	95	2	2	0	1	1	3	1	112.5	157.5	-0.810938555223201	2.79730885756559	0.283333333333333	0	0	0	60.4676887653768	60.5676702114288	0.0999814460519701	0.283363090129569
33980.5	100	96	0	96	2	2	0	1	1	0	2	67.5	22.5	3.09861295206182	0.748891093945747	0.233333333333333	0	0	0	60.8010247806087	60.9010050077923	0.0999802271835506	0.233354569179937
34080.5	100	97	0	97	2	2	0	1	1	0	1	112.5	157.5	0.283215107863808	-0.514435947770354	0.3	0	0	0	61.201051258482	61.3010092987679	0.0999580402858555	0.300046250689775
34138.75	100	98	0	98	2	2	0	1	1	0	2	67.5	22.5	2.48901699567801	-2.04197122654919	0.133333333333333	0	0	0	61.4344111913815	61.5343904432375	0.0999792518559843	0.13340189261362
34197.25	100	99	0	99	2	2	0	1	1	0	1	112.5	157.5	-2.12089565956576	2.18594714289214	0.133333333333333	0	0	0	61.6677477185149	61.7677120980807	0.0999643795657903	0.133357275277376
34284.75	100	100	0	100	2	2	0	1	1	0	1	22.5	157.5	-1.39720754135989	-0.925631756613012	0.25	0	0	0	62.0177410503384	62.117736881366	0.099995831027627	0.250028952257708
34380.5	100	101	0	101	2	2	0	1	1	0	1	112.5	157.5	0.940837656782318	-3.04298712787964	0.283333333333333	1	0	0	62.401077541057	62.5010884881485	0.100010947091505	0.283340659691021
34468	100	102	0	102	2	2	0	1	1	0	2	157.5	112.5	-1.14188499874375	1.90491708849486	0.25	0	0	0	62.7511108575854	62.8510920598637	0.0999812022782862	0.25002236943692
34543	100	103	0	103	2	2	0	1	1	0	1	112.5	157.5	1.02579155563824	-3.10059055796639	0.2	0	0	0	63.0511163922492	63.151079552481	0.0999631602317095	0.20002433238551
34626.25	100	104	0	104	2	2	0	1	1	0	1	112.5	157.5	0.0485121919187144	-2.86073902752449	0.233333333333333	0	0	0	63.3844368036371	63.4844206876587	0.0999838840216398	0.233357251156121
34718	100	105	0	105	2	2	0	1	1	0	2	157.5	112.5	-2.65066161120257	-2.95065190824175	0.266666666666667	1	0	0	63.7511345071252	63.8511193667073	0.0999848595820367	0.266713819466531
34789	100	106	0	106	2	2	0	1	1	0	2	67.5	22.5	-2.43915542469516	0.908586590749691	0.183333333333333	0	0	0	64.034459563205	64.1344397901557	0.09998022695072	0.183340196497738
34843	100	107	0	107	2	2	0	1	1	0	2	157.5	112.5	-0.385751300780825	0.390170570132268	0.116666666666667	0	0	0	64.2511551091447	64.3511311914772	0.0999760823324323	0.116715318989009
34914	100	108	0	108	2	2	0	1	1	0	1	112.5	67.5	0.211205864395395	-0.103727009082212	0.183333333333333	0	0	0	64.534470656421	64.6344555160031	0.0999848595820367	0.183339464943856
34993	100	109	0	109	2	2	0	1	1	0	1	22.5	157.5	-2.03217097719414	2.73314844798869	0.216666666666667	0	0	0	64.8511471608654	64.9511151975021	0.0999680366367102	0.216691644862294
35068	100	110	0	110	2	2	0	1	1	0	2	157.5	22.5	-1.48803287862982	-0.185589476320427	0.2	1	0	0	65.1511712248903	65.2511365795508	0.0999653546605259	0.2000560273882
35164	100	111	0	111	2	2	0	1	1	0	2	157.5	22.5	-3.13406590199878	-1.84905666976417	0.283333333333333	0	0	0	65.534514054656	65.634495500708	0.0999814460519701	0.283377475105226
35251.5	100	112	0	112	2	2	0	1	1	0	1	112.5	157.5	-1.4707097581498	3.1194575628608	0.25	0	0	0	65.8845022665337	65.9845076058991	0.100005339365453	0.250006765825674
35301.5	100	113	0	113	2	2	0	1	1	0	1	22.5	157.5	-1.19865841377544	-2.44903332138478	0.1	0	0	0	66.0845278177876	66.1845099951606	0.0999821773730218	0.100020211888477
35401.5	100	114	0	114	2	2	0	1	1	0	2	67.5	22.5	-0.701510302265878	-2.82970718265186	0.3	1	0	0	66.4845269888174	66.5845011204947	0.0999741316772997	0.300016993656754
35489	100	115	0	115	2	2	0	1	1	0	1	22.5	67.5	0.585650659601763	-1.74181669956905	0.25	0	0	0	66.8345269034617	66.9345137132332	0.099986809771508	0.250025782966986
35576.5	100	116	0	116	2	2	0	1	1	0	2	67.5	22.5	2.21609692706087	2.99416797451585	0.25	1	0	0	67.1845431532711	67.2845253308769	0.0999821776058525	0.250029440037906
35668	100	117	0	117	2	2	0	1	1	0	1	112.5	157.5	1.36548741114047	-0.517405885851529	0.266666666666667	0	0	0	67.5512379312422	67.6511981659569	0.099960234714672	0.266712600365281
35722.25	100	118	0	118	2	2	0	1	1	0	2	67.5	22.5	1.51275476479251	-0.899313722859725	0.116666666666667	0	0	0	67.7679161666892	67.8678734756541	0.0999573089648038	0.116718000732362
35789	100	119	0	119	2	2	0	1	1	0	2	67.5	112.5	-1.36387698974034	-0.819151351310251	0.166666666666667	0	0	0	68.0345636699349	68.1345482855104	0.0999846155755222	0.166690194280818
35880.5	100	120	0	120	2	2	0	1	1	0	1	22.5	157.5	-0.0278499601737443	-0.814366015488882	0.266666666666667	0	0	0	68.4012433316093	68.501222827239	0.0999794956296682	0.266695046098903
35964	100	121	0	121	2	2	0	1	1	0	1	22.5	157.5	1.42517115341252	1.6064545401468	0.233333333333333	0	0	0	68.7345822725911	68.8345856615342	0.100003388943151	0.233359445352107
36043	100	122	0	122	2	2	0	1	1	0	1	22.5	67.5	2.47430278622441	0.866801559944834	0.216666666666667	0	0	0	69.0512787692714	69.1512431488372	0.0999643795657903	0.216693107737228
36122.25	100	123	0	123	2	2	0	1	1	0	2	67.5	112.5	-1.63092133449531	-1.38618571620884	0.216666666666667	0	0	0	69.3679650260601	69.4679181901738	0.0999531641136855	0.216721877222881
36184.75	100	124	0	124	2	2	0	1	1	3	1	112.5	157.5	-3.04701095409014	-1.94531867510395	0.15	0	0	0	69.6179396088701	69.7179266626481	0.0999870537780225	0.150021418696269
36255.5	100	125	0	125	2	2	0	1	1	3	2	157.5	112.5	-2.82189913987238	1.98627320228763	0.183333333333333	0	0	0	69.9012834383175	70.0012885339092	0.100005095591769	0.183356775669381
36355.5	100	126	0	126	2	2	0	1	1	3	2	67.5	22.5	0.0965523377227759	0.386584554856656	0.3	0	0	0	70.3012926054653	70.40127063822	0.0999780327547342	0.300004071556032
36409.75	100	127	0	127	2	2	0	1	1	3	1	22.5	67.5	2.33883952462808	0.0107726103740595	0.116666666666667	0	0	0	70.5179618201219	70.6179486298934	0.099986809771508	0.116691181901842
47189.25	100	128	1	0	2	1	0	1	1	3	2	67.5	112.5	1.63521885500251	-1.47158444344206	0.116666666666667	0	0	0	113.635811097454	113.735790593084	0.0999794956296682	-1
47276.75	100	129	1	1	2	1	0	1	1	3	2	157.5	112.5	-1.3126586819614	2.14727436803301	0.25	0	0	0	113.985814181622	114.085784168681	0.0999699870590121	0.25002358853817
47368.25	100	130	1	2	2	1	0	1	1	3	1	22.5	67.5	1.24843369823465	2.17569022741525	0.266666666666667	0	0	0	114.352500426117	114.452455540886	0.099955114768818	0.266716257436201
47430.75	100	131	1	3	2	1	0	1	1	3	2	67.5	22.5	1.61986367964917	-2.15799070266199	0.15	0	0	0	114.602509142365	114.702458405634	0.0999492632690817	0.150053601479158
47485	100	132	1	4	2	1	0	1	1	0	2	157.5	22.5	-1.0134342850396	-2.70201893562209	0.116666666666667	0	0	0	114.819155926351	114.91913542198	0.0999794956296682	0.116697520716116
47560	100	133	1	5	2	1	0	1	1	0	1	112.5	157.5	0.415658934525324	0.15248175393748	0.2	0	0	0	115.119156828383	115.219168994576	0.100012166192755	0.200021406402811
47643.25	100	134	1	6	2	1	0	1	1	0	1	22.5	157.5	1.12314433642841	-1.97595342158377	0.233333333333333	0	0	0	115.452503571287	115.55251281173	0.100009240442887	0.233334576711059
47718.25	100	135	1	7	2	1	0	1	1	0	2	67.5	22.5	-2.84416985185056	3.14035900397659	0.2	0	0	0	115.752512275241	115.852496403269	0.0999841280281544	0.199999463511631
47768.25	100	136	1	8	2	1	0	1	1	0	2	67.5	112.5	1.44039348668093	-1.95237265759274	0.1	0	0	0	115.952542702667	116.052526586922	0.0999838842544705	0.100046299397945
47835	100	137	1	9	2	1	0	1	1	0	1	22.5	157.5	-0.823631069155629	0.981145945122929	0.166666666666667	0	0	0	116.219190693693	116.319188231137	0.0999975374434143	0.16666410677135
47918.25	100	138	1	10	2	1	0	1	1	0	1	112.5	157.5	-0.910929718295777	-2.59886353145771	0.233333333333333	0	0	0	116.552531828871	116.652515956899	0.0999841280281544	0.233343597734347
48005.75	100	139	1	11	2	1	0	1	1	0	1	22.5	67.5	1.77508119004885	0.737440283178657	0.25	0	0	0	116.902544909157	117.002529037185	0.0999841280281544	0.250028952257708
48072.5	100	140	1	12	2	1	0	1	1	0	1	112.5	157.5	-1.84753906970504	-1.21040139939414	0.166666666666667	0	0	0	117.169221181888	117.269201896619	0.0999807147309184	0.16669214470312
48155.75	100	141	1	13	2	1	0	1	1	0	2	157.5	22.5	-3.11716268480638	-1.57648746587966	0.233333333333333	0	0	0	117.502566461917	117.602541325148	0.0999748632311821	0.233364565297961
48255.75	100	142	1	14	2	1	0	1	1	0	1	112.5	67.5	0.185326179813353	-0.177914133606229	0.3	0	0	0	117.902572703548	118.002552686725	0.099979983177036	0.300031378399581
48314.25	100	143	1	15	2	1	0	1	1	0	1	112.5	157.5	-1.60009014454705	-1.53768563904998	0.133333333333333	0	0	0	118.135908986907	118.235889457865	0.0999804709572345	0.133356300182641
48389.25	100	144	1	16	2	1	0	1	1	0	2	157.5	22.5	2.6686110400682	1.1727712271976	0.2	0	0	0	118.435953774722	118.535907182842	0.0999534081202	0.200064316857606
48485	100	145	1	17	2	1	0	1	1	0	1	112.5	67.5	-1.43289394240833	2.33761055318156	0.283333333333333	0	0	0	118.819260520628	118.919244161109	0.0999836404807866	0.283353337785229
48580.75	100	146	1	18	2	1	0	1	1	0	1	22.5	67.5	2.05060565411462	-1.42401811952265	0.283333333333333	0	0	0	119.202643091325	119.302601863164	0.0999587718397379	0.283398930216208
48680.75	100	147	1	19	2	1	0	1	1	0	2	67.5	112.5	-0.708932480710953	-0.768549429736355	0.3	0	0	0	119.602625683416	119.70260907989	0.099983396474272	0.300023820251226
48739.25	100	148	1	20	2	1	0	1	1	0	2	67.5	22.5	2.03313386017492	-0.0540043922030806	0.133333333333333	0	0	0	119.835966111626	119.935952433851	0.0999863222241402	0.133357031736523
48839.25	100	149	1	21	2	1	0	1	1	0	1	22.5	67.5	1.81373584185062	2.43935248296627	0.3	0	0	0	120.235967720626	120.335958675249	0.0999909546226263	0.300015286775306
48930.75	100	150	1	22	2	1	0	1	1	0	2	67.5	22.5	1.84791249155065	-2.53299146167465	0.266666666666667	0	0	0	120.6026532338	120.702636386501	0.0999831527005881	0.266694558551535
49010	100	151	1	23	2	1	0	1	1	0	1	112.5	157.5	1.46556917408093	-1.74837553420966	0.216666666666667	0	0	0	120.91935558198	121.019326544367	0.0999709623865783	0.216719195479527
49076.75	100	152	1	24	2	1	0	1	1	0	2	67.5	22.5	2.62512350287017	-2.05963954788175	0.166666666666667	0	0	0	121.186017226195	121.286004523747	0.0999872975517064	0.166690681828186
49176.75	100	153	1	25	2	1	0	1	1	0	2	157.5	112.5	2.59294469429144	2.5417182526391	0.3	0	0	0	121.586000549607	121.685984921409	0.0999843718018383	0.29999602586031
49239.25	100	154	1	26	2	1	0	1	1	0	1	112.5	67.5	0.841191472066603	-1.19813539678294	0.15	0	0	0	121.836035353364	121.936018018518	0.0999826651532203	0.150050431955606
49331	100	155	1	27	2	1	0	1	1	0	1	112.5	157.5	2.53640131534473	1.90886959523117	0.266666666666667	0	0	0	122.202688927529	122.302668910706	0.099979983177036	0.266670909011737
49397.5	100	156	1	28	2	1	0	1	1	0	1	112.5	67.5	-1.71429436635695	2.29580350011976	0.166666666666667	0	0	0	122.469361055642	122.569342745468	0.099981689825654	0.166692144935951
49456	100	157	1	29	2	1	0	1	1	0	1	22.5	157.5	-2.54853889701419	2.44106340417597	0.133333333333333	0	0	0	122.702701483853	122.802713406039	0.100011922186241	0.133358738385141
49556	100	158	1	30	2	1	0	1	1	0	1	22.5	157.5	2.00630452922652	-0.361414560778545	0.3	0	0	0	123.102712113876	123.202694047475	0.0999819335993379	0.299998707836494
49639.25	100	159	1	31	2	1	0	1	1	0	2	67.5	112.5	0.251889585751617	-0.932800760341241	0.233333333333333	0	0	0	123.436066170922	123.5360473732	0.0999812022782862	0.233372123446316
49701.75	100	160	1	32	2	1	0	1	1	0	2	67.5	22.5	0.848364329618959	-1.22888452556358	0.15	0	0	0	123.686073180521	123.786048287526	0.099975107004866	0.150025807321072
49789.25	100	161	1	33	2	1	0	1	1	0	1	22.5	157.5	-3.07131309161266	-0.182187998128184	0.25	0	0	0	124.036100645782	124.136084773578	0.0999841277953237	0.250052358256653
49881	100	162	1	34	2	1	0	1	1	0	2	157.5	112.5	-1.94919390181299	2.24479269210039	0.266666666666667	0	0	0	124.402772261761	124.502766142134	0.0999938803724945	0.266687488183379
49939.25	100	163	1	35	2	1	0	1	1	0	2	157.5	22.5	1.73472400307355	-1.36933052815051	0.133333333333333	0	0	0	124.636095379479	124.736081701703	0.0999863222241402	0.133329237345606
49993.5	100	164	1	36	2	1	0	1	1	0	1	112.5	67.5	-2.12997427352011	2.80495012233094	0.116666666666667	0	0	0	124.852765813004	124.952747746604	0.0999819335993379	0.116684111300856
50056	100	165	1	37	2	1	0	1	1	0	1	22.5	67.5	2.22477607988724	2.15871085163793	0.15	0	0	0	125.102773066377	125.202750367578	0.0999773012008518	0.150025319773704
50143.5	100	166	1	38	2	1	0	1	1	0	2	157.5	22.5	2.71414975167062	-2.15898657119081	0.25	0	0	0	125.452786146663	125.552764666965	0.099978520302102	0.25003577908501
50210	100	167	1	39	2	1	0	1	1	0	1	22.5	67.5	1.5902197381661	-1.58929427059748	0.166666666666667	0	0	0	125.719460468972	125.81944167125	0.0999812022782862	0.166695802006871
50310	100	168	1	40	2	1	0	1	1	3	2	67.5	22.5	-2.38024739531606	1.03270239330448	0.3	0	0	0	126.119459152455	126.219469124218	0.100009971763939	0.300017481204122
50389.25	100	169	1	41	2	1	0	1	1	3	2	157.5	112.5	1.14138692354835	-1.99207979995859	0.216666666666667	0	0	0	126.436164426384	126.536146359984	0.0999819335993379	0.216695302166045
50456	100	170	1	42	2	1	0	1	1	3	1	22.5	157.5	2.61524674696156	-2.8947611978629	0.166666666666667	0	0	0	126.702849719906	126.802801421378	0.0999517014715821	0.166703359922394
50551.75	100	171	1	43	2	1	0	1	1	2	-1	45	0	-2.87087217662836	-0.891790542272618	0.283333333333333	0	0	0	127.086155002937	127.186135961441	0.0999809585046023	0.283353581558913
50610	100	172	1	44	2	1	0	1	1	3	1	22.5	67.5	-0.572279629999495	-0.402646508215493	0.133333333333333	0	0	0	127.31949201785	127.419476389652	0.0999843718018383	0.133356056408957
50664.25	100	173	1	45	2	1	0	1	1	3	1	112.5	157.5	-2.64624585886462	-1.18820499532054	0.116666666666667	0	0	0	127.536164645804	127.636174373794	0.100009727990255	0.116688256151974
50735	100	174	1	46	2	1	0	1	1	3	2	67.5	112.5	2.58259100092468	0.603220158602612	0.183333333333333	0	0	0	127.819505061721	127.919488458196	0.099983396474272	0.183330687927082
50826.75	100	175	1	47	2	1	0	1	1	3	2	157.5	22.5	-2.15911293876209	1.18839328661169	0.266666666666667	0	0	0	128.186186673818	128.286162756151	0.0999760823324323	0.266698215622455
50922.5	100	176	1	48	2	1	0	1	1	0	2	157.5	22.5	2.1704234717607	2.65295885231047	0.283333333333333	0	0	0	128.569560223725	128.669508024119	0.0999478003941476	0.283397467574105
51001.75	100	177	1	49	2	1	0	1	1	0	1	22.5	67.5	1.7612947479521	1.00441072656233	0.216666666666667	0	0	0	128.886202838505	128.986184284557	0.0999814460519701	0.216694814385846
51072.5	100	178	1	50	2	1	0	1	1	0	2	67.5	22.5	1.85912977432615	1.79253437513858	0.183333333333333	0	0	0	129.169541060226	129.269554933067	0.100013872841373	0.183356775669381
51126.75	100	179	1	51	2	1	0	1	1	0	1	112.5	157.5	2.86584326650699	-2.79386270313074	0.116666666666667	0	0	0	129.386247821385	129.486197328428	0.0999495070427656	0.11669288831763
51210	100	180	1	52	2	1	0	1	1	0	1	22.5	67.5	2.12669085465891	1.04401336435822	0.233333333333333	0	0	0	129.719559455756	129.819537000731	0.0999775449745357	0.233362127328292
51264.25	100	181	1	53	2	1	0	1	1	0	2	157.5	112.5	-2.56811370152807	-0.124227065579112	0.116666666666667	0	0	0	129.936235009227	130.036213773303	0.0999787640757859	0.116698008496314
51318.5	100	182	1	54	2	1	0	1	1	0	2	67.5	112.5	1.7559850398228	-1.64339508089501	0.116666666666667	0	0	0	130.152900322806	130.252888107905	0.0999877850990742	0.116686549503356
51414.25	100	183	1	55	2	1	0	1	1	0	2	67.5	22.5	-1.03972594990981	-3.02913306556047	0.283333333333333	0	0	0	130.536277529551	130.63622971857	0.0999521890189499	0.283389421645552
51472.5	100	184	1	56	2	1	0	1	1	0	1	22.5	67.5	2.94852005838827	2.87026541191836	0.133333333333333	0	0	0	130.769588212948	130.86956673325	0.099978520302102	0.133358494378626
51547.5	100	185	1	57	2	1	0	1	1	0	1	112.5	67.5	-1.02511191720324	-2.20604731075107	0.2	0	0	0	131.069592528511	131.16957153636	0.0999790078494698	0.200025795260444
51647.5	100	186	1	58	2	1	0	1	1	0	1	112.5	157.5	-1.43544308133971	-2.3118802419528	0.3	0	0	0	131.469610960456	131.569593381835	0.0999824213795364	0.300039424095303
51726.75	100	187	1	59	2	1	0	1	1	0	2	157.5	22.5	0.0702604376784808	-1.4881688616767	0.216666666666667	0	0	0	131.786281369627	131.886282076593	0.100000706966966	0.216687987791374
51797.5	100	188	1	60	2	1	0	1	1	0	2	157.5	22.5	-0.562903999762502	-1.98961230377422	0.183333333333333	0	0	0	132.06964762928	132.169638584135	0.0999909548554569	0.183365552686155
51897.5	100	189	1	61	2	1	0	1	1	0	2	157.5	22.5	0.871023938450028	0.58113809986514	0.3	0	0	0	132.46965972241	132.569624345517	0.0999646231066436	0.300021138275042
51976.75	100	190	1	62	2	1	0	1	1	0	2	67.5	112.5	-0.359850705885058	-0.0974959230163699	0.216666666666667	0	0	0	132.786331350449	132.886309627211	0.0999782767612487	0.216707004932687
52068.5	100	191	1	63	2	1	0	1	1	0	2	67.5	112.5	-0.457767464167798	-1.62620508897536	0.266666666666667	0	0	0	133.153002478881	133.252991483081	0.0999890042003244	0.266692851670086
52143.5	100	192	1	64	2	1	0	1	1	0	1	22.5	67.5	0.421523662493023	-0.0995545089206096	0.2	0	0	0	133.452989727724	133.552972392878	0.0999826651532203	0.199998244643211
52218.5	100	193	1	65	2	1	0	1	1	0	1	22.5	157.5	3.03913760475691	2.00075238015362	0.2	0	0	0	133.753000138327	133.853010353865	0.100010215537623	0.200027745449916
52289.25	100	194	1	66	2	1	0	1	1	0	1	112.5	157.5	-0.358173702522593	0.0097187229645832	0.183333333333333	0	0	0	134.036374443909	134.136353451991	0.0999790080823004	0.183364090044051
52339.25	100	195	1	67	2	1	0	1	1	0	1	22.5	67.5	1.90716067846492	2.85458762989272	0.1	0	0	0	134.23635830381	134.336356572574	0.099998268764466	0.100004851818085
52426.75	100	196	1	68	2	1	0	1	1	0	1	112.5	157.5	1.3026735003752	1.61982375084683	0.25	0	0	0	134.586380161112	134.686373553937	0.0999933928251266	0.25002358853817
52476.75	100	197	1	69	2	1	0	1	1	0	2	67.5	22.5	-1.0531468947568	-1.51898328967823	0.1	0	0	0	134.78639157163	134.886369116604	0.0999775449745357	0.100018017692491
52556	100	198	1	70	2	1	0	1	1	0	1	112.5	67.5	-2.06786101672138	0.107852142010965	0.216666666666667	0	0	0	135.103039550129	135.203018070664	0.0999785205349326	0.216670433524996
52618.5	100	199	1	71	2	1	0	1	1	0	2	157.5	112.5	0.337742290990131	-1.75697896575249	0.15	0	0	0	135.353077767417	135.453056287719	0.099978520302102	0.150059696752578
52714.25	100	200	1	72	2	1	0	1	1	0	2	67.5	112.5	-0.17891391912375	-2.24548724461683	0.283333333333333	1	0	0	135.736404993339	135.836401067907	0.0999960745684803	0.283348705619574
52806	100	201	1	73	2	1	0	1	1	0	1	22.5	67.5	-1.21109292541602	-2.46072828081017	0.266666666666667	0	0	0	136.103099039756	136.203059762018	0.0999607222620398	0.266697971848771
52872.75	100	202	1	74	2	1	0	1	1	0	2	67.5	112.5	0.00589349221931501	1.6488629767498	0.166666666666667	0	0	0	136.369774337159	136.469752613921	0.0999782767612487	0.166714575141668
52943.5	100	203	1	75	2	1	0	1	1	0	1	22.5	67.5	-0.563014248126148	-1.79644140892308	0.183333333333333	0	0	0	136.653102806536	136.75308839744	0.0999855909030885	0.183350192615762
53018.5	100	204	1	76	2	1	0	1	1	0	2	157.5	112.5	-0.394400257996884	2.73145356039511	0.2	0	0	0	136.953110047616	137.053092468996	0.0999824213795364	0.200021650176495
53076.75	100	205	1	77	2	1	0	1	1	0	2	157.5	112.5	-0.0248859950705835	-2.62225032886514	0.133333333333333	0	0	0	137.186444380786	137.28643362876	0.0999892479740083	0.133351911790669
53139.25	100	206	1	78	2	1	0	1	1	0	1	112.5	157.5	2.61838212312362	1.19869673475452	0.15	0	0	0	137.436468456872	137.536443320103	0.0999748632311821	0.150034828111529
53210.25	100	207	1	79	2	1	0	1	1	0	1	112.5	67.5	1.07325493428947	-1.27558168317123	0.183333333333333	0	0	0	137.719803752843	137.81976886373	0.099965110886842	0.183360432740301
53276.75	100	208	1	80	2	1	0	1	1	0	2	157.5	112.5	2.49415990629932	-2.23917877145184	0.166666666666667	0	0	0	137.986485145753	138.086461471627	0.0999763258732855	0.166716282023117
53347.75	100	209	1	81	2	1	0	1	1	0	2	67.5	112.5	1.48075145547157	0.630339385630131	0.183333333333333	0	0	0	138.269818247296	138.36978725926	0.0999690119642764	0.183356775669381
53426.75	100	210	1	82	2	1	0	1	1	0	2	157.5	112.5	-0.176860114661149	1.26831028334592	0.216666666666667	0	0	0	138.586496458389	138.686480342643	0.0999838842544705	0.216709199128672
53476.75	100	211	1	83	2	1	0	1	1	0	2	157.5	22.5	-1.53991411140176	-1.05017277325051	0.1	0	0	0	138.786494946806	138.88648712053	0.0999921737238765	0.100014604162425
53531	100	212	1	84	2	1	0	1	1	0	1	22.5	157.5	1.20704530788485	-1.10958486974929	0.116666666666667	0	0	0	139.003156847088	139.103158529382	0.100001682294533	0.11666972655803
53610.25	100	213	1	85	2	1	0	1	1	0	1	22.5	157.5	1.02524663591087	-2.18083788568113	0.216666666666667	0	0	0	139.319826768478	139.419809921179	0.0999831527005881	0.21666823909618
53685.25	100	214	1	86	2	1	0	1	1	0	2	67.5	112.5	-2.88493363218	0.917118494814532	0.2	0	0	0	139.619833522011	139.719843981555	0.100010459544137	0.200023600831628
53735.25	100	215	1	87	2	1	0	1	1	0	1	112.5	157.5	-2.46155140182778	-0.491856770943255	0.1	0	0	0	139.819861755241	139.919847102137	0.0999853468965739	0.100017773685977
53826.75	100	216	1	88	2	1	0	1	1	0	1	112.5	67.5	2.85637890678837	2.80111608928547	0.266666666666667	0	0	0	140.186536784517	140.286522131646	0.0999853471294045	0.266689682379365
53881	100	217	1	89	2	1	0	1	1	0	2	67.5	22.5	-1.38191008103505	1.65225222201144	0.116666666666667	0	0	0	140.403217945714	140.503176717553	0.0999587718397379	0.116695814067498
53943.5	100	218	1	90	2	1	0	1	1	0	2	157.5	22.5	-3.13381614137109	0.852892676957814	0.15	0	0	0	140.653219347587	140.753201037413	0.099981689825654	0.150042630033568
54039.25	100	219	1	91	2	1	0	1	1	0	2	157.5	112.5	2.30110572812352	2.10316331293447	0.283333333333333	0	0	0	141.036539502908	141.136538259685	0.0999987567774951	0.283338465495035
54126.75	100	220	1	92	2	1	0	1	1	0	2	67.5	22.5	2.94374703209905	2.85396379922196	0.25	0	0	0	141.386564042419	141.486548414221	0.0999843718018383	0.250025782734156
54206	100	221	1	93	2	1	0	1	1	0	2	67.5	22.5	1.08544220707091	-0.0915478338920415	0.216666666666667	0	0	0	141.703247617232	141.80322930729	0.0999816900584847	0.216699203010648
54264.25	100	222	1	94	2	1	0	1	1	0	2	67.5	112.5	1.83926260970241	0.260675668636403	0.133333333333333	0	0	0	141.936569028301	142.036573148798	0.100004120497033	0.133339721010998
54322.75	100	223	1	95	2	1	0	1	1	3	1	112.5	67.5	-1.20074166974648	-2.38428847526599	0.133333333333333	0	0	0	142.169925791677	142.26990845683	0.0999826651532203	0.13335264287889
54397.75	100	224	1	96	2	1	0	1	1	3	2	67.5	22.5	-0.87174309452497	-0.0402818773080376	0.2	0	0	0	142.469937665388	142.56991618569	0.099978520302102	0.20002920855768
54476.75	100	225	1	97	2	1	0	1	1	3	1	22.5	67.5	0.382019410308911	-1.08208585001088	0.216666666666667	1	0	0	142.786586131668	142.886590983486	0.100004851818085	0.216669945977628
54539.25	100	226	1	98	2	1	0	1	1	1	-1	0	45	-2.55761738795541	-3.02791242184473	0.15	0	0	0	143.036596310558	143.13658360811	0.0999872975517064	0.150005327071995
54622.75	100	227	1	99	2	1	0	1	1	3	1	22.5	157.5	-1.20912928636593	2.98476549345535	0.233333333333333	0	0	0	143.369961583056	143.469925962389	0.0999643793329597	0.233377974946052
54710.25	100	228	1	100	2	1	0	1	1	3	2	157.5	22.5	0.77545005065033	-2.98734123300822	0.25	0	0	0	143.719970518723	143.819948307704	0.0999777889810503	0.250044556334615
54801.75	100	229	1	101	2	1	0	1	1	3	1	112.5	157.5	-0.760487105453598	-1.94967938639605	0.266666666666667	0	0	0	144.08662262978	144.186630407348	0.100007777567953	0.266674322076142
54868.5	100	230	1	102	2	1	0	1	1	3	2	67.5	112.5	0.920103308665986	-1.4886102472284	0.166666666666667	0	0	0	144.353294757893	144.453301560134	0.100006802240387	0.166664350545034
54935.25	100	231	1	103	2	1	0	1	1	0	2	157.5	22.5	2.90198477436801	2.32639050194258	0.166666666666667	0	0	0	144.619993704837	144.719975394895	0.0999816900584847	0.16669214470312
54993.5	100	232	1	104	2	1	0	1	1	0	1	112.5	67.5	3.10663247358744	-1.48645354607642	0.133333333333333	0	0	0	144.85333071975	144.953295586864	0.0999648671131581	0.133355324855074
55076.75	100	233	1	105	2	1	0	1	1	0	1	112.5	67.5	2.95285570178986	2.86811670691257	0.233333333333333	0	0	0	145.186675512232	145.286654520081	0.0999790078494698	0.233379925368354
55160.25	100	234	1	106	2	1	0	1	1	0	2	67.5	22.5	-0.966972636885337	0.80121505204163	0.233333333333333	0	0	0	145.520019816933	145.620001262985	0.0999814460519701	0.233365296851844
55251.75	100	235	1	107	2	1	0	1	1	0	2	157.5	22.5	0.364662138686705	-0.584172297204178	0.266666666666667	0	0	0	145.886693139561	145.986667515244	0.0999743756838143	0.266691876575351
55335.25	100	236	1	108	2	1	0	1	1	0	2	157.5	112.5	-0.823707237429195	-0.810700069081075	0.233333333333333	0	0	0	146.220037444495	146.320018402766	0.0999809582717717	0.23336992925033
55397.75	100	237	1	109	2	1	0	1	1	0	2	67.5	112.5	-2.14633683964627	0.0243564522763973	0.15	0	0	0	146.470041528111	146.57000858942	0.0999670613091439	0.150023125344887
55493.5	100	238	1	110	2	1	0	1	1	0	1	22.5	157.5	-3.05821267075853	1.4912448834091	0.283333333333333	0	0	0	146.853393866448	146.953372630756	0.0999787643086165	0.283385277027264
55543.5	100	239	1	111	2	1	0	1	1	0	1	112.5	67.5	-0.835266708045082	1.32940949525922	0.1	0	0	0	147.053396011936	147.153377945768	0.0999819338321686	0.100023381179199
55643.5	100	240	1	112	2	1	0	1	1	0	2	67.5	22.5	1.61360668827609	-2.29920186028318	0.3	0	0	0	147.453394207871	147.553378579672	0.0999843718018383	0.300016262102872
55731	100	241	1	113	2	1	0	1	1	0	2	157.5	112.5	-1.09365417905214	-0.216134635145965	0.25	0	0	0	147.803389977664	147.903371911496	0.0999819338321686	0.250011397991329
55818.5	100	242	1	114	2	1	0	1	1	0	1	112.5	67.5	-0.344838935798997	-2.79290264658107	0.25	0	0	0	148.15341598005	148.253374995664	0.0999590156134218	0.250044068554416
55889.25	100	243	1	115	2	1	0	1	1	0	2	157.5	112.5	-2.35091670054719	-2.59580829960807	0.183333333333333	0	0	0	148.436768830288	148.536747838371	0.0999790080823004	0.183393834624439
55985.25	100	244	1	116	2	1	0	1	1	0	1	112.5	157.5	-1.56348383519505	0.953243844287394	0.283333333333333	0	0	0	148.820092886686	148.92009091191	0.0999980252236128	0.283345048315823
56047.75	100	245	1	117	2	1	0	1	1	0	1	22.5	157.5	2.45242707546572	-1.94657607863048	0.15	0	0	0	149.070112330606	149.170099384151	0.0999870535451919	0.150021418696269
56102	100	246	1	118	2	1	0	1	1	0	1	22.5	67.5	1.95695145077965	-1.38538372880912	0.116666666666667	0	0	0	149.286786421202	149.386768598808	0.0999821776058525	0.116687037050724
56152	100	247	1	119	2	1	0	1	1	0	1	22.5	157.5	2.90948587531923	2.8086108599107	0.1	0	0	0	149.486792467767	149.586756359553	0.0999638917855918	0.100023868959397
56239.5	100	248	1	120	2	1	0	1	1	0	2	67.5	112.5	0.147487052771208	-2.59900684249955	0.25	0	0	0	149.836799940327	149.936785043683	0.0999851033557206	0.250043580774218
56310.25	100	249	1	121	2	1	0	1	1	0	1	22.5	157.5	-1.83433942589601	-1.09834924864237	0.183333333333333	0	0	0	150.120141331572	150.220108880661	0.0999675490893424	0.183356287889183
56402	100	250	1	122	2	1	0	1	1	0	1	22.5	157.5	0.504496315411317	-1.04767568545194	0.266666666666667	0	0	0	150.486804170534	150.586784397485	0.09998022695072	0.266695289872587
56452	100	251	1	123	2	1	0	1	1	0	2	157.5	112.5	-1.66496478846977	0.455993939935918	0.1	0	0	0	150.686823626515	150.786794344895	0.0999707183800638	0.10003922902979
56531	100	252	1	124	2	1	0	1	1	3	2	157.5	22.5	-1.25596670620164	1.5679050821568	0.216666666666667	0	0	0	151.003499643411	151.103483527433	0.0999838840216398	0.216705298516899
56606	100	253	1	125	2	1	0	1	1	3	1	22.5	157.5	-1.09834300345246	-1.16342527125107	0.2	0	0	0	151.303483478725	151.403472726699	0.0999892479740083	0.199999951291829
56677	100	254	1	126	2	1	0	1	1	3	1	112.5	67.5	1.34142219731597	-1.3845841702996	0.183333333333333	0	0	0	151.586846569087	151.686794369482	0.0999478003941476	0.183373842388391
56727	100	255	1	127	2	1	0	1	1	3	1	112.5	157.5	1.44373268605391	2.15963659920467	0.1	0	0	0	151.786838230677	151.886816263432	0.0999780327547342	0.100043861195445
58056	100	256	2	0	2	1	90	2	2	3	1	112.5	157.5	2.76732421564898	-1.72883397258243	0.25	0	0	0	157.103671992198	157.203647099435	0.0999751072376966	-1
58147.75	100	257	2	1	2	1	90	2	2	3	1	22.5	157.5	-0.651964811104482	2.32940902557707	0.266666666666667	0	0	0	157.470360187348	157.570312620141	0.0999524327926338	0.266713087912649
58231	100	258	2	2	2	1	90	2	2	3	1	112.5	67.5	-2.07433289056886	-2.50911883192908	0.233333333333333	0	0	0	157.803684012033	157.903664970538	0.0999809585046023	0.233371391892433
58293.5	100	259	2	3	2	1	90	2	2	3	2	157.5	22.5	1.60839848041625	1.31589834273498	0.15	0	0	0	158.05369492271	158.153670273488	0.0999753507785499	0.15002995217219
58385.25	100	260	2	4	2	1	90	2	2	0	2	67.5	112.5	0.654816199303466	0.269432206784007	0.266666666666667	0	0	0	158.420349715743	158.520355298882	0.100005583139136	0.266679442254826
58481	100	261	2	5	2	1	90	2	2	0	2	67.5	112.5	-2.32075313766517	-1.09503613434396	0.283333333333333	0	0	0	158.803710587323	158.903694471577	0.0999838842544705	0.283355288440362
58581	100	262	2	6	2	1	90	2	2	0	1	112.5	67.5	2.25012733317524	-1.67291422526367	0.3	0	0	0	159.203718779376	159.303706076927	0.0999872975517064	0.300024307798594
58656	100	263	2	7	2	1	90	2	2	0	2	157.5	112.5	-1.81651718513995	-1.47770164422308	0.2	0	0	0	159.50372455758	159.603693081765	0.099968524184078	0.200018480652943
58722.75	100	264	2	8	2	1	90	2	2	0	1	112.5	67.5	0.886551142884303	1.36875928803678	0.166666666666667	0	0	0	159.770409120014	159.870368623175	0.0999595031607896	0.166716038249433
58785.25	100	265	2	9	2	1	90	2	2	0	2	67.5	22.5	-2.70636731855456	0.182908060365876	0.15	0	0	0	160.020399062894	160.120391480392	0.0999924174975604	0.150030439719558
58852	100	266	2	10	2	1	90	2	2	0	2	157.5	112.5	-0.203032491824509	-3.12691048093043	0.166666666666667	0	0	0	160.287086063297	160.387047516881	0.0999614535830915	0.16669458290562
58939.5	100	267	2	11	2	1	90	2	2	0	2	67.5	112.5	-1.94552618930978	-1.31419419050352	0.25	0	0	0	160.637083052192	160.73707010597	0.0999870537780225	0.250035535311326
58989.5	100	268	2	12	2	1	90	2	2	0	1	112.5	157.5	-1.05907787540845	1.26811241948745	0.1	0	0	0	160.83710006997	160.93708005338	0.0999799834098667	0.100029963999987
59064.5	100	269	2	13	2	1	90	2	2	0	1	22.5	67.5	-1.51271725049104	-2.75468349118377	0.2	0	0	0	161.137104385532	161.237092414405	0.0999880288727582	0.20002433215268
59122.75	100	270	2	14	2	1	90	2	2	0	1	22.5	67.5	-3.00458625753251	-0.457313093333055	0.133333333333333	0	0	0	161.370446276618	161.470405779779	0.0999595031607896	0.133353862212971
59214.5	100	271	2	15	2	1	90	2	2	0	1	112.5	67.5	0.467784259382813	0.691561192479754	0.266666666666667	0	0	0	161.737101069652	161.83709470625	0.0999936365988106	0.266695289872587
59268.5	100	272	2	16	2	1	90	2	2	0	2	67.5	112.5	2.04001400002924	-1.05266604593814	0.116666666666667	0	0	0	161.953795640264	162.053780012066	0.0999843718018383	0.116700934013352
59339.5	100	273	2	17	2	1	90	2	2	0	1	112.5	157.5	2.92826858187056	-0.211273908579913	0.183333333333333	0	0	0	162.23712337832	162.337118965341	0.0999955870211124	0.183343366254121
59389.5	100	274	2	18	2	1	90	2	2	0	2	67.5	22.5	-0.740191972600456	2.60383448550153	0.1	0	0	0	162.437140396098	162.537125499453	0.0999851033557206	0.100021430756897
59472.75	100	275	2	19	2	1	90	2	2	0	2	157.5	22.5	-2.86963092476188	-0.886953817646694	0.233333333333333	0	0	0	162.770481531508	162.870462246006	0.0999807144980878	0.233356032054871
59539.5	100	276	2	20	2	1	90	2	2	0	2	67.5	22.5	1.05805419355611	0.411874474427028	0.166666666666667	0	0	0	163.037158779334	163.137134861667	0.0999760823324323	0.166696533327922
59635.25	100	277	2	21	2	1	90	2	2	0	1	112.5	157.5	1.61518429945305	1.38534242502295	0.283333333333333	0	0	0	163.420488199685	163.520470133284	0.0999819335993379	0.28335333801806
59735.25	100	278	2	22	2	1	90	2	2	0	2	157.5	112.5	2.60544999832449	-0.327761174160278	0.3	0	0	0	163.820496391505	163.920495148282	0.0999987567774951	0.300026258220896
59822.75	100	279	2	23	2	1	90	2	2	0	1	112.5	157.5	2.14098120226984	-2.51325512101923	0.25	0	0	0	164.170522393892	164.270509203896	0.0999868100043386	0.25002724560909
59881.25	100	280	2	24	2	1	90	2	2	0	2	67.5	22.5	0.584174456444849	-3.04098972395651	0.133333333333333	0	0	0	164.40386379743	164.503847193904	0.099983396474272	0.133354593534023
59931.25	100	281	2	25	2	1	90	2	2	0	2	157.5	112.5	-1.99416717553192	-0.807695676438378	0.1	0	0	0	164.603869356215	164.703849339392	0.099979983177036	0.100022162310779
60006.25	100	282	2	26	2	1	90	2	2	0	2	67.5	112.5	-1.79299219828321	-0.398647808840518	0.2	0	0	0	164.90385441063	165.003836100455	0.099981689825654	0.200005071237683
60085.25	100	283	2	27	2	1	90	2	2	0	1	112.5	157.5	1.07322268070566	-0.542275040198773	0.216666666666667	0	0	0	165.220530915074	165.320514067775	0.0999831527005881	0.216694814618677
60139.5	100	284	2	28	2	1	90	2	2	3	2	157.5	22.5	-2.58438584466339	2.12641417684466	0.116666666666667	0	0	0	165.437218171544	165.537202543346	0.0999843718018383	0.116704103769735
60206.25	100	285	2	29	2	1	90	2	2	3	1	112.5	67.5	-2.05504917475635	-1.94651928749744	0.166666666666667	0	0	0	165.703896882245	165.803883448476	0.0999865662306547	0.166694338899106
60285.25	100	286	2	30	2	1	90	2	2	3	1	112.5	157.5	-2.40296441650091	-2.9465094625814	0.216666666666667	0	0	0	166.020574849565	166.120553857647	0.0999790080823004	0.21669140108861
60381.25	100	287	2	31	2	1	90	2	2	1	-1	90	45	2.79106650231567	-1.7966257754514	0.283333333333333	0	0	0	166.403916947776	166.503898881609	0.0999819338321686	0.283363090129569
60468.75	100	288	2	32	2	1	90	2	2	3	1	22.5	67.5	0.134840126298934	-2.9479260252421	0.25	0	0	0	166.753933441592	166.853913668543	0.09998022695072	0.25003455998376
60568.75	100	289	2	33	2	1	90	2	2	3	1	22.5	157.5	-1.13036922829265	0.33263174959433	0.3	1	0.642201347276568	1	167.153923835373	167.25392210437	0.0999982689972967	0.300010166829452
60652	100	290	2	34	2	1	90	2	2	3	2	67.5	22.5	1.07106156566304	-2.47306888862832	0.233333333333333	0	0	0	167.48727082205	167.587238371139	0.0999675490893424	0.233348717680201
60702	100	291	2	35	2	1	90	2	2	3	2	157.5	112.5	-0.371088626660709	-2.88683501502665	0.1	0	0	0	167.687266872497	167.787245636573	0.0999787640757859	0.100028501357883
60802	100	292	2	36	2	1	90	2	2	0	1	22.5	67.5	-0.607781368191984	-1.85106685431544	0.3	0	0	0	168.087298470084	168.187273333315	0.0999748632311821	0.300052833510563
60889.5	100	293	2	37	2	1	90	2	2	0	2	67.5	22.5	1.52734714896439	1.12184097849452	0.25	0	0	0	168.437299116282	168.537286413833	0.0999872975517064	0.250025782966986
60960.25	100	294	2	38	2	1	90	2	2	0	1	22.5	67.5	0.572298564855781	1.74874907438221	0.183333333333333	0	0	0	168.7206407513	168.82059903536	0.0999582840595394	0.183354337466881
61018.75	100	295	2	39	2	1	90	2	2	0	1	22.5	157.5	0.59790620461706	2.85162590259085	0.133333333333333	0	0	0	168.953945339425	169.053970183711	0.100024844286963	0.133346304064617
61102	100	296	2	40	2	1	90	2	2	0	1	22.5	157.5	2.7054391395151	-0.804633759120795	0.233333333333333	0	0	0	169.287324265111	169.387303760741	0.0999794956296682	0.233354081399739
61164.5	100	297	2	41	2	1	90	2	2	0	1	112.5	67.5	-1.6752140981276	0.992529793625893	0.15	0	0	0	169.537330787163	169.637312476989	0.099981689825654	0.150027026422322
61218.75	100	298	2	42	2	1	90	2	2	0	1	22.5	157.5	-1.50874600444774	2.39902507143377	0.116666666666667	0	0	0	169.754000976915	169.85398510471	0.0999841277953237	0.116688499925658
61281.25	100	299	2	43	2	1	90	2	2	0	2	157.5	112.5	-0.676975972547166	1.66532569440841	0.15	0	0	0	170.004014325328	170.103987481911	0.0999731565825641	0.150029220618308
61339.5	100	300	2	44	2	1	90	2	2	0	1	112.5	67.5	-1.37569268662113	2.02874079658176	0.133333333333333	0	0	0	170.237321107881	170.337335712044	0.100014604162425	0.133333625970408
61435.25	100	301	2	45	2	1	90	2	2	0	1	112.5	67.5	-1.00071281937686	2.57152299311658	0.283333333333333	0	0	0	170.620695876656	170.720704385545	0.100008508889005	0.283360164612532
61493.75	100	302	2	46	2	1	90	2	2	0	1	112.5	157.5	0.989517016693468	1.40482916631109	0.133333333333333	0	0	0	170.854016068624	170.954017263371	0.100001194747165	0.133311683079228
61589.5	100	303	2	47	2	1	90	2	2	0	1	22.5	157.5	-0.794330432953258	1.84795482037504	0.283333333333333	0	0	0	171.237381816376	171.337360092904	0.0999782765284181	0.283364553004503
61672.75	100	304	2	48	2	1	90	2	2	0	2	67.5	112.5	2.53177746443124	2.29252212646854	0.233333333333333	0	0	0	171.570717587834	171.670698302565	0.0999807147309184	0.233357494929805
61735.25	100	305	2	49	2	1	90	2	2	0	2	67.5	112.5	-1.52202534861262	-0.476999545588621	0.15	0	0	0	171.820705336519	171.92070750636	0.1000021698419	0.150007033953443
61802	100	306	2	50	2	1	90	2	2	0	1	22.5	67.5	-2.29177039723682	0.369608206835091	0.166666666666667	0	0	0	172.087406477891	172.187382559991	0.0999760820996016	0.166698971530423
61877	100	307	2	51	2	1	90	2	2	0	1	112.5	67.5	3.11523882938815	1.7074950019866	0.2	0	0	0	172.387404697947	172.487391507952	0.0999868100043386	0.200022137956694
61931.25	100	308	2	52	2	1	90	2	2	0	1	22.5	67.5	0.240918424620567	-2.94441357434693	0.116666666666667	0	0	0	172.604104632512	172.704047312727	0.099942680215463	0.116713124560192
62010.25	100	309	2	53	2	1	90	2	2	0	2	67.5	22.5	2.34459731190856	-1.73875589086985	0.216666666666667	0	0	0	172.9207370074	173.020711870631	0.0999748632311821	0.216689694672823
62093.75	100	310	2	54	2	1	90	2	2	0	1	22.5	67.5	0.627372093483238	1.03968110801658	0.233333333333333	0	0	0	173.254096184392	173.354081775295	0.0999855909030885	0.233384313760325
62185.25	100	311	2	55	2	1	90	2	2	0	2	157.5	112.5	2.92016779809236	-0.846525366756396	0.266666666666667	0	0	0	173.620779015822	173.720759974094	0.0999809582717717	0.266697240527719
62256.25	100	312	2	56	2	1	90	2	2	0	1	22.5	157.5	-2.28202004420328	-2.53834423456398	0.183333333333333	0	0	0	173.904122845037	174.004108192166	0.0999853471294045	0.183362870942801
62335.25	100	313	2	57	2	1	90	2	2	0	2	157.5	22.5	-2.67301037181704	1.34695590009434	0.216666666666667	0	0	0	174.22079227888	174.320748856524	0.0999565776437521	0.21668408671394
62393.75	100	314	2	58	2	1	90	2	2	0	2	67.5	112.5	0.251804344140813	1.04298014226453	0.133333333333333	0	0	0	174.454104425153	174.554084408563	0.0999799834098667	0.133355568628758
62477	100	315	2	59	2	1	90	2	2	0	1	112.5	67.5	-0.373764268189925	-0.720526905488342	0.233333333333333	0	0	0	174.787446535658	174.887427494163	0.0999809585046023	0.233362127095461
62539.5	100	316	2	60	2	1	90	2	2	0	1	112.5	157.5	0.0155373656776687	2.93504547518432	0.15	0	0	0	175.037484265165	175.137444987427	0.0999607222620398	0.15005677100271
62627	100	317	2	61	2	1	90	2	2	0	2	157.5	112.5	2.41633347077837	2.37816523831405	0.25	0	0	0	175.387488324661	175.487474159338	0.0999858346767724	0.250043337233365
62722.75	100	318	2	62	2	1	90	2	2	3	1	112.5	67.5	0.897002686891992	-1.99234222117819	0.283333333333333	0	0	0	175.770836030599	175.870816989103	0.0999809585046023	0.28336187126115
62772.75	100	319	2	63	2	1	90	2	2	3	1	22.5	157.5	-2.43372369855537	2.03049821068864	0.1	0	0	0	175.970840126509	176.070828399388	0.0999882728792727	0.100023137405515
62847.75	100	320	2	64	2	1	90	2	2	3	1	22.5	67.5	-2.26703376192869	2.79815423384174	0.2	0	0	0	176.270850049565	176.3708285701	0.0999785205349326	0.200021650176495
62910.25	100	321	2	65	2	1	90	2	2	1	-1	90	135	0.760694864471003	-1.38421543403308	0.15	0	0	0	176.520856327843	176.620834116591	0.0999777887482196	0.150027757743374
62993.75	100	322	2	66	2	1	90	2	2	3	2	157.5	22.5	-0.612337343877018	1.36758190220124	0.233333333333333	0	0	0	176.854179908754	176.954157697735	0.0999777889810503	0.233345792163163
63052	100	323	2	67	2	1	90	2	2	3	2	67.5	112.5	0.265769404490466	-1.49822624767489	0.133333333333333	0	0	0	177.087515460793	177.187523725908	0.100008265115321	0.133357763057575
63123	100	324	2	68	2	1	90	2	2	3	2	157.5	112.5	-1.85025740903154	-2.53411347080141	0.183333333333333	0	0	0	177.370876112953	177.470857559005	0.0999814460519701	0.183352387044579
63202	100	325	2	69	2	1	90	2	2	3	1	112.5	157.5	2.90562550925827	-0.272102523451962	0.216666666666667	0	0	0	177.687537257327	177.787520166254	0.0999829089269042	0.216679698321968
63273	100	326	2	70	2	1	90	2	2	0	2	67.5	22.5	-0.472254186480037	2.21767660933742	0.183333333333333	0	0	0	177.970897909487	178.070903005078	0.100005095591769	0.183377743232995
63368.75	100	327	2	71	2	1	90	2	2	0	2	67.5	22.5	-0.62907744543155	1.98003284346418	0.283333333333333	1	1.72558423504233	1	178.354250491597	178.454207312781	0.0999568211846054	0.283347486518323
63468.75	100	328	2	72	2	1	90	2	2	0	2	67.5	22.5	-0.651852466039197	-1.81133306873268	0.3	0	0	0	178.754225037759	178.854213798186	0.0999887604266405	0.300017724977806
63518.75	100	329	2	73	2	1	90	2	2	0	1	112.5	67.5	-3.00264308105289	2.71872579248293	0.1	0	0	0	178.95423620427	179.054246176034	0.100009971763939	0.100022406084463
63618.75	100	330	2	74	2	1	90	2	2	0	2	157.5	22.5	2.72479322666186	-2.6039142838937	0.3	0	0	0	179.354245371651	179.454229255673	0.0999838840216398	0.299999195616692
63685.5	100	331	2	75	2	1	90	2	2	0	2	67.5	112.5	-0.909841201851465	-0.59309630170068	0.166666666666667	0	0	0	179.620924813906	179.720903821755	0.0999790078494698	0.166695558233187
63785.5	100	332	2	76	2	1	90	2	2	0	1	112.5	157.5	1.63517473291057	1.35217128153783	0.3	0	0	0	180.020937150577	180.120921034832	0.0999838842544705	0.300033328821883
63835.5	100	333	2	77	2	1	90	2	2	0	1	22.5	67.5	0.490498502370437	3.03828608070831	0.1	0	0	0	180.220959776081	180.320943660336	0.0999838842544705	0.100038741249591
63885.5	100	334	2	78	2	1	90	2	2	0	2	157.5	22.5	-0.119654494015878	-0.133298804833479	0.1	0	0	0	180.420962409349	180.520957508823	0.0999950994737446	0.100018749013543
63964.5	100	335	2	79	2	1	90	2	2	0	2	67.5	112.5	2.65043654586239	-2.03122774186979	0.216666666666667	0	0	0	180.737638913793	180.837624748237	0.0999858344439417	0.216681404970586
64023	100	336	2	80	2	1	90	2	2	0	2	157.5	112.5	-0.934263800597213	0.202760768063163	0.133333333333333	0	0	0	180.970979097998	181.070945915533	0.09996681753546	0.133354349760339
64106.25	100	337	2	81	2	1	90	2	2	3	2	157.5	112.5	-0.440644592270867	2.9920603915977	0.233333333333333	0	0	0	181.304329741979	181.404302167008	0.0999724250286818	0.233383826445788
64173	100	338	2	82	2	1	90	2	2	3	1	112.5	157.5	-2.39901075511283	3.00188040515359	0.166666666666667	0	0	0	181.570996993687	181.670977952192	0.0999809585046023	0.166694826679304
64235.5	100	339	2	83	2	1	90	2	2	3	2	67.5	22.5	0.528729079344713	0.766267707113403	0.15	0	0	0	181.821000589989	181.920985449338	0.0999848593492061	0.15002263779752
64289.5	100	340	2	84	2	1	90	2	2	2	-1	45	90	1.85482418589039	-2.10135532742351	0.116666666666667	1	-0.0952515394892544	-1	182.037676631007	182.137637597043	0.0999609660357237	0.116691181669012
64381.25	100	341	2	85	2	1	90	2	2	3	2	67.5	112.5	1.60500333042139	-0.282435943887166	0.266666666666667	0	0	0	182.404349709861	182.504332375014	0.0999826651532203	0.266712112817913
64456.25	100	342	2	86	2	1	90	2	2	3	2	157.5	22.5	0.932338791524573	-2.5686224820919	0.2	0	0	0	182.704357438721	182.804333033273	0.0999755945522338	0.200025063706562
64514.5	100	343	2	87	2	1	90	2	2	3	1	112.5	67.5	-0.556351592542925	-1.37206660073	0.133333333333333	0	0	0	182.937676655361	183.037683945382	0.100007290020585	0.133343622088432
64602	100	344	2	88	2	1	90	2	2	3	1	22.5	157.5	-0.847597463605505	-0.734485551865319	0.25	0	0	0	183.28771338542	183.387691418175	0.0999780327547342	0.250029440037906
64664.5	100	345	2	89	2	1	90	2	2	0	1	22.5	67.5	1.9037796491514	-2.37426231358722	0.15	0	0	0	183.537717469037	183.637698427541	0.0999809585046023	0.150026050861925
64731.25	100	346	2	90	2	1	90	2	2	0	1	22.5	157.5	3.0264447663053	0.449393618235856	0.166666666666667	0	0	0	183.804392522899	183.904354464263	0.09996194136329	0.166694095358253
64823	100	347	2	91	2	1	90	2	2	0	2	157.5	22.5	-1.3603658794368	0.992473681105159	0.266666666666667	0	0	0	184.171047072159	184.27104851068	0.100001438520849	0.266692607896402
64918.75	100	348	2	92	2	1	90	2	2	0	1	22.5	67.5	-1.45583200147285	0.758784567866626	0.283333333333333	0	0	0	184.554391121026	184.654368178453	0.0999770574271679	0.283342610346153
64998	100	349	2	93	2	1	90	2	2	0	2	157.5	112.5	-2.48013200689379	2.28903301043445	0.216666666666667	0	0	0	184.871072257636	184.971065406688	0.0999931490514427	0.216704079182819
65052	100	350	2	94	2	1	90	2	2	0	2	157.5	112.5	-0.33148412358707	2.29946031045101	0.116666666666667	0	0	0	185.087762439856	185.18773925351	0.099976813653484	0.116697033168748
65123	100	351	2	95	2	1	90	2	2	0	1	112.5	67.5	0.511779279422844	0.261099166064287	0.183333333333333	0	0	0	185.371097004507	185.471058945637	0.0999619411304593	0.183357750996947
65173	100	352	2	96	2	1	90	2	2	0	1	22.5	157.5	0.494304852047389	-1.03884528713471	0.1	0	0	0	185.571111340309	185.671085959766	0.0999746194574982	0.100052394671366
65235.5	100	353	2	97	2	1	90	2	2	0	2	157.5	22.5	-0.782868218747634	2.71861885031473	0.15	0	0	0	185.821114205057	185.921092481818	0.0999782767612487	0.150028245290741
65302	100	354	2	98	2	1	90	2	2	0	1	112.5	157.5	-2.43522310570137	1.34436779304892	0.166666666666667	0	0	0	186.08778633317	186.187746567884	0.099960234714672	0.166693851351738
65381.25	100	355	2	99	2	1	90	2	2	0	1	22.5	67.5	-0.361021018687503	-0.45349752005585	0.216666666666667	0	0	0	186.404437725199	186.50441843993	0.0999807147309184	0.216691157314926
65473	100	356	2	100	2	1	90	2	2	0	1	112.5	157.5	2.75727785957528	0.83112811004609	0.266666666666667	0	0	0	186.771119825076	186.871127846418	0.100008021341637	0.266701385146007
65548	100	357	2	101	2	1	90	2	2	0	1	22.5	157.5	2.59335234545833	-1.99391410959789	0.2	0	0	0	187.071146570845	187.171124847373	0.0999782765284181	0.200018724426627
65648	100	358	2	102	2	1	90	2	2	0	1	22.5	157.5	1.8723786293254	-0.896546542861576	0.3	0	0	0	187.471154519124	187.571138403378	0.0999838842544705	0.300029671750963
65702	100	359	2	103	2	1	90	2	2	0	2	157.5	22.5	1.77430041360075	-2.99863858559996	0.116666666666667	0	0	0	187.687828365946	187.787812250201	0.0999838842544705	0.116689962567762
65785.5	100	360	2	104	2	1	90	2	2	0	2	157.5	112.5	2.72842647568874	0.611724632075435	0.233333333333333	0	0	0	188.021170476452	188.121157042449	0.0999865659978241	0.233358226250857
65856.25	100	361	2	105	2	1	90	2	2	0	2	157.5	22.5	1.55144671618624	1.42809883978323	0.183333333333333	0	0	0	188.304515280994	188.404494289076	0.0999790080823004	0.183358238544315
65948	100	362	2	106	2	1	90	2	2	0	1	22.5	157.5	-0.382969739538366	-1.89406329681105	0.266666666666667	0	0	0	188.67119079805	188.771157859359	0.0999670613091439	0.266696508973837
66023	100	363	2	107	2	1	90	2	2	0	1	112.5	157.5	-0.234856874430833	0.607726865073563	0.2	0	0	0	188.971179997083	189.071179485181	0.0999994880985469	0.200022137723863
66110.5	100	364	2	108	2	1	90	2	2	0	1	22.5	67.5	2.63602286900467	-2.99822557788995	0.25	0	0	0	189.321209412767	189.421185251325	0.0999758385587484	0.250029927585274
66164.5	100	365	2	109	2	1	90	2	2	0	1	112.5	67.5	2.47254957623816	2.52659828100096	0.116666666666667	0	0	0	189.537870093947	189.637851783773	0.099981689825654	0.116684842621908
66248	100	366	2	110	2	1	90	2	2	0	2	67.5	22.5	-3.01408876098604	1.09704289975691	0.233333333333333	0	0	0	189.871214886429	189.971216324717	0.100001438288018	0.233363102655858
66327	100	367	2	111	2	1	90	2	2	0	1	22.5	157.5	-0.517246206953258	2.72020634762294	0.216666666666667	0	0	0	190.187889196444	190.287871130044	0.0999819335993379	0.216672871727496
66418.75	100	368	2	112	2	1	90	2	2	0	1	22.5	67.5	-0.741519652487488	1.53687612269881	0.266666666666667	1	0	0	190.554566176143	190.654550060397	0.0999838842544705	0.266695046098903
66473	100	369	2	113	2	1	90	2	2	0	1	112.5	157.5	2.47503939020419	2.29805362401724	0.116666666666667	0	0	0	190.771239535417	190.871218787273	0.0999792518559843	0.116689475020394
66556.25	100	370	2	114	2	1	90	2	2	0	1	112.5	157.5	-2.8788320163236	0.540449616139081	0.233333333333333	0	0	0	191.10458262125	191.204562604427	0.099979983177036	0.23336383397691
66648	100	371	2	115	2	1	90	2	2	0	2	67.5	22.5	-1.57721215592509	2.46080346747738	0.266666666666667	0	0	0	191.471254481003	191.571245435625	0.0999909546226263	0.266691876575351
66727.25	100	372	2	116	2	1	90	2	2	0	1	112.5	67.5	2.06568226796879	-2.31228117642331	0.216666666666667	0	0	0	191.787930010119	191.887914869701	0.0999848595820367	0.216684574494138
66781.25	100	373	2	117	2	1	90	2	2	0	2	67.5	22.5	-0.901219924815468	2.42054071644161	0.116666666666667	0	0	0	192.004603856942	192.10458798497	0.0999841280281544	0.116688987240195
66877.25	100	374	2	118	2	1	90	2	2	3	2	157.5	22.5	1.17452006119473	0.138885722049597	0.283333333333333	0	0	0	192.387949856231	192.487934959587	0.0999851033557206	0.28336187126115
66968.75	100	375	2	119	2	1	90	2	2	3	1	22.5	67.5	0.692206255298164	-0.170406397226749	0.266666666666667	0	0	0	192.754629274132	192.854612183059	0.0999829089269042	0.26669431454502
67035.5	100	376	2	120	2	1	90	2	2	3	1	22.5	157.5	-1.60068276909622	0.395455134261734	0.166666666666667	0	0	0	193.021300426917	193.121284554945	0.0999841280281544	0.166688243858516
67098	100	377	2	121	2	1	90	2	2	2	-1	135	90	-0.00637909788371305	0.221713565898098	0.15	0	0	0	193.271303779446	193.371286688372	0.0999829089269042	0.150019224500284
67156.25	100	378	2	122	2	1	90	2	2	3	1	112.5	67.5	-2.18193713293453	-0.66604982075367	0.133333333333333	0	0	0	193.504642013228	193.604628823232	0.0999868100043386	0.133355324855074
67206.25	100	379	2	123	2	1	90	2	2	3	2	67.5	22.5	-1.66508115784616	-1.45367550445078	0.1	0	0	0	193.704649034888	193.804633162916	0.0999841280281544	0.100020211655647
67289.75	100	380	2	124	2	1	90	2	2	3	2	67.5	112.5	2.73000455416321	-0.767204670422776	0.233333333333333	0	0	0	194.037981636822	194.137983319117	0.100001682294533	0.233348473906517
67368.75	100	381	2	125	2	1	90	2	2	3	2	157.5	112.5	2.58238487211397	-1.99437621153195	0.216666666666667	0	0	0	194.354647169821	194.454626665451	0.0999794956296682	0.216663850704208
67456.25	100	382	2	126	2	1	90	2	2	0	1	22.5	157.5	1.50957314082731	-0.85863491118727	0.25	0	0	0	194.704663663637	194.804666077252	0.100002413615584	0.25003699818626
67506.25	100	383	2	127	2	1	90	2	2	0	2	67.5	112.5	1.57776031540346	2.29553176726806	0.1	0	0	0	194.904691165313	195.004673098912	0.0999819335993379	0.100025088060647
67602.25	100	384	2	128	2	1	90	2	2	0	2	157.5	22.5	2.29545769560607	0.328402283723389	0.283333333333333	0	0	0	195.288039602572	195.388018610654	0.0999790080823004	0.283366503659636
67660.5	100	385	2	129	2	1	90	2	2	0	2	157.5	22.5	0.321308158600839	-1.63745990989243	0.133333333333333	0	0	0	195.521375398384	195.621352212038	0.099976813653484	0.133356787730008
67760.5	100	386	2	130	2	1	90	2	2	0	2	67.5	112.5	3.09814136512099	0.312517488037479	0.3	0	0	0	195.921379201813	196.021358453669	0.0999792518559843	0.300026989774778
67856.25	100	387	2	131	2	1	90	2	2	0	2	157.5	112.5	1.16905324399239	-1.44673839789033	0.283333333333333	0	0	0	196.304725932423	196.404692262411	0.0999663299880922	0.283367478754371
67923	100	388	2	132	2	1	90	2	2	0	2	157.5	22.5	1.57607081954067	-1.61812678250091	0.166666666666667	0	0	0	196.571403180482	196.671384626534	0.0999814460519701	0.166710918070748
67985.5	100	389	2	133	2	1	90	2	2	0	1	22.5	157.5	2.38748726243936	0.828200756057972	0.15	0	0	0	196.821415553801	196.921362378867	0.0999468250665814	0.150030927266926
68060.5	100	390	2	134	2	1	90	2	2	0	2	67.5	22.5	1.76750528155649	0.497899002259978	0.2	0	0	0	197.121417187387	197.22137912875	0.09996194136329	0.200054808519781
68135.5	100	391	2	135	2	1	90	2	2	0	2	157.5	22.5	-2.55885082580689	1.55292844101754	0.2	0	0	0	197.421426622896	197.521408556495	0.0999819335993379	0.20004749414511
68223	100	392	2	136	2	1	90	2	2	0	1	112.5	67.5	-2.81722971382842	0.236243921691584	0.25	0	0	0	197.771435802337	197.871418467257	0.0999826649203897	0.25002724584192
68293.75	100	393	2	137	2	1	90	2	2	0	2	67.5	112.5	-2.08274639387834	0.611633160859701	0.183333333333333	0	0	0	198.054757201113	198.154724506196	0.0999673050828278	0.183338733855635
68381.25	100	394	2	138	2	1	90	2	2	0	2	157.5	22.5	1.29990111241888	-0.425932337374229	0.25	0	0	0	198.404789542546	198.504767331295	0.0999777887482196	0.250065036350861
68452.25	100	395	2	139	2	1	90	2	2	0	2	157.5	112.5	1.0777364568113	1.76040269378435	0.183333333333333	0	0	0	198.688127764035	198.788113354938	0.0999855909030885	0.183360432740301
68523	100	396	2	140	2	1	90	2	2	3	2	67.5	112.5	-2.44940537879541	-0.158485323722649	0.183333333333333	0	0	0	198.97146964306	199.071449382463	0.0999797394033521	0.183356288122013
68581.25	100	397	2	141	2	1	90	2	2	3	2	157.5	112.5	-1.81613396305187	-1.0869249898459	0.133333333333333	0	0	0	199.20478520263	199.304785665823	0.100000463193282	0.133335820166394
68681.25	100	398	2	142	2	1	90	2	2	3	2	67.5	22.5	2.86237889944077	0.377301195681481	0.3	0	0	0	199.604797539301	199.704801903572	0.100004364270717	0.30001187347807
68731.25	100	399	2	143	2	1	90	2	2	3	1	22.5	67.5	1.22899271122669	2.58813771087951	0.1	0	0	0	199.804809924914	199.904788688989	0.0999787640757859	0.100008021341637
70844	100	400	3	0	1	1	0	2	2	3	1	112.5	157.5	2.59026383896421	-0.580991522169958	0.2	0	0	0	208.255021685734	208.35503043863	0.100008752895519	-1
70919	100	401	3	1	1	1	0	2	2	3	1	22.5	67.5	0.0989187165817391	-1.16155532100689	0.2	0	0	0	208.555077201221	208.655048894929	0.09997169370763	0.200046762591228
70994	100	402	3	2	1	1	0	2	2	3	2	67.5	112.5	0.733914190843714	1.37923159649558	0.2	0	0	0	208.855070057558	208.955049553188	0.0999794956296682	0.200021162629128
71069	100	403	3	3	1	1	0	2	2	3	2	157.5	112.5	0.152942987938883	-1.18776472776557	0.2	0	0	0	209.15507388534	209.255054600071	0.0999807147309184	0.20002433215268
71144	100	404	3	4	1	1	0	2	2	0	1	22.5	67.5	-1.50716506773721	0.53329621684687	0.2	0	0	0	209.4550816142	209.555037947837	0.0999563336372375	0.200027014128864
71219	100	405	3	5	1	1	0	2	2	0	2	157.5	22.5	0.857088603331861	0.572024805525295	0.2	0	0	0	209.755085198209	209.855072739534	0.0999875413253903	0.200047250371426
71294	100	406	3	6	1	1	0	2	2	0	1	112.5	157.5	1.01173765434536	-1.61813474152044	0.2	0	0	0	210.055094877491	210.155080955941	0.0999860784504563	0.200022137956694
71369	100	407	3	7	1	1	0	2	2	0	1	112.5	157.5	2.24364029961099	1.59213508524755	0.2	0	0	0	210.355103825219	210.455088440794	0.0999846155755222	0.200022869277745
71444	100	408	3	8	1	1	0	2	2	0	2	157.5	22.5	-2.40779952353074	0.000973566043432239	0.2	0	0	0	210.655114967376	210.755096413428	0.0999814460519701	0.200026526581496
71519	100	409	3	9	1	1	0	2	2	0	1	22.5	67.5	-0.735247518046505	-0.231250257618566	0.2	0	0	0	210.955097096041	211.055077079218	0.099979983177036	0.200000682612881
71594	100	410	3	10	1	1	0	2	2	0	1	22.5	67.5	-2.99318420833144	0.438030312963727	0.2	0	0	0	211.255132619059	211.355083101429	0.0999504823703319	0.200055539840832
71669	100	411	3	11	1	1	0	2	2	0	2	67.5	22.5	2.64751501930874	1.30241231521654	0.2	0	0	0	211.555111090653	211.655132765416	0.100021674763411	0.200027989223599
71744	100	412	3	12	1	1	0	2	2	0	1	22.5	67.5	1.13524872625178	2.5691941038333	0.2	0	0	0	211.855153684271	211.955132936127	0.0999792518559843	0.200020918855444
71819	100	413	3	13	1	1	0	2	2	0	2	157.5	22.5	1.90239958460162	-0.798308393187655	0.2	0	0	0	212.155166776851	212.255142127629	0.0999753507785499	0.200033840723336
71894	100	414	3	14	1	1	0	2	2	0	1	112.5	67.5	-1.6304025671585	1.17552285157127	0.2	0	0	0	212.455145979999	212.555128644919	0.0999826649203897	0.200003852369264
71969	100	415	3	15	1	1	0	2	2	0	2	157.5	22.5	0.503768449162522	1.00507635966917	0.2	0	0	0	212.755154683953	212.855160998646	0.100006314693019	0.200026039034128
72044	100	416	3	16	1	1	0	2	2	0	2	67.5	112.5	1.37979994882441	1.88583780125694	0.2	0	0	0	213.055184111698	213.155169946374	0.0999858346767724	0.200023113051429
72119	100	417	3	17	1	1	0	2	2	0	2	157.5	112.5	-3.04150229985075	1.91928876166418	0.2	0	0	0	213.355178674683	213.455175724579	0.0999970498960465	0.200008728308603
72194	100	418	3	18	1	1	0	2	2	0	1	112.5	157.5	-0.399316387435986	-2.51785184751703	0.2	0	0	0	213.655206639785	213.755168581149	0.09996194136329	0.200030915206298
72269	100	419	3	19	1	1	0	2	2	0	1	22.5	157.5	-0.365294955079029	1.35616398072491	0.2	0	0	0	213.955193157075	214.055193620268	0.100000463193282	0.200024575926363
72344	100	420	3	20	1	1	0	2	2	0	1	112.5	157.5	1.98949988467666	2.32813229483021	0.2	0	0	0	214.255217952421	214.35520329955	0.0999853471294045	0.20002433215268
72419	100	421	3	21	1	1	0	2	2	0	1	112.5	67.5	-1.99462846242998	-0.338074763327988	0.2	0	0	0	214.555224705953	214.655208590208	0.0999838842544705	0.200021406402811
72494	100	422	3	22	1	1	0	2	2	0	2	67.5	112.5	2.85248235699424	2.67152024693843	0.2	0	0	0	214.855213661445	214.955193157075	0.0999794956296682	0.200005071237683
72569	100	423	3	23	1	1	0	2	2	0	2	67.5	112.5	2.26216485638029	-1.63604628803801	0.2	0	0	0	215.155224803602	215.255200154381	0.0999753507785499	0.20003164652735
72644	100	424	3	24	1	1	0	2	2	0	1	22.5	157.5	-1.4666161342795	-2.99736702702177	0.2	0	0	0	215.455252037151	215.555230313679	0.0999782765284181	0.200051882769912
72719	100	425	3	25	1	1	0	2	2	0	1	22.5	157.5	0.573539333266917	2.60932434852345	0.2	0	0	0	215.755241236417	215.855243893806	0.100002657389268	0.20001092273742
72794	100	426	3	26	1	1	0	2	2	0	2	67.5	22.5	-1.41585905901954	1.25995324783426	0.2	0	0	0	216.055271395482	216.155252110213	0.0999807147309184	0.200027501676232
72869	100	427	3	27	1	1	0	2	2	0	1	22.5	67.5	-0.440291407087735	-2.67205199992801	0.2	0	0	0	216.355258400552	216.455238139955	0.0999797394033521	0.200006290338933
72944	100	428	3	28	1	1	0	2	2	0	2	67.5	22.5	-2.19650264362128	3.09128265259836	0.2	0	0	0	216.655287584523	216.75526805548	0.0999804709572345	0.200049444567412
73019	100	429	3	29	1	1	0	2	2	0	2	67.5	112.5	-0.720342210737151	1.86924353310386	0.2	0	0	0	216.955290680984	217.055271883262	0.0999812022782862	0.200022625504062
73094	100	430	3	30	1	1	0	2	2	0	2	157.5	22.5	2.7959108856169	2.70586976556542	0.2	0	0	0	217.255278904922	217.355284731835	0.10000582691282	0.200007021659985
73169	100	431	3	31	1	1	0	2	2	3	1	22.5	67.5	-2.47182362957272	2.58221665375358	0.2	0	0	0	217.555292972829	217.655289534945	0.0999965621158481	0.200008240994066
73244	100	432	3	32	1	1	0	2	2	3	1	112.5	157.5	0.204208304161354	-2.17909942687876	0.2	0	0	0	217.85530387098	217.95527458936	0.0999707183800638	0.200014336034656
73319	100	433	3	33	1	1	0	2	2	3	1	112.5	67.5	0.783789236656918	2.39160444329262	0.2	0	0	0	218.155327447457	218.255304261111	0.099976813653484	0.200052858097479
73394	100	434	3	34	1	1	0	2	2	1	-1	0	45	-0.751452846543997	1.93690224091682	0.2	0	0	0	218.455332006561	218.555292241275	0.099960234714672	0.200027745449916
73469	100	435	3	35	1	1	0	2	2	3	2	67.5	22.5	-2.67370619892992	0.0133753829930585	0.2	0	0	0	218.755307064857	218.855288754916	0.0999816900584847	0.200014823582023
73544	100	436	3	36	1	1	0	2	2	3	2	67.5	112.5	3.11297533643743	-0.108739199125833	0.2	0	0	0	219.055313574616	219.155331348302	0.100017773685977	0.200024819700047
73619	100	437	3	37	1	1	0	2	2	3	2	157.5	22.5	2.96513940441867	-0.69417243435686	0.2	0	0	0	219.355352754937	219.455317865591	0.0999651106540114	0.200021406635642
73694	100	438	3	38	1	1	0	2	2	3	2	157.5	112.5	2.00255271254248	-2.22699918332645	0.2	0	0	0	219.655334396055	219.755327788647	0.099993392592296	0.200016530463472
73769	100	439	3	39	1	1	0	2	2	0	2	67.5	112.5	-1.15393403126125	-2.16612290111793	0.2	1	1.39218799863011	1	219.955352852354	220.055354534648	0.100001682294533	0.200025063706562
73844	100	440	3	40	1	1	0	2	2	0	2	67.5	22.5	0.4047159445954	-3.02050288107163	0.2	0	0	0	220.255363506731	220.355365920579	0.100002413848415	0.200008972082287
73919	100	441	3	41	1	1	0	2	2	0	1	112.5	67.5	2.94966814984298	-2.99456078227637	0.2	0	0	0	220.555365871871	220.655348049244	0.0999821773730218	0.199999951291829
73994	100	442	3	42	1	1	0	2	2	0	2	157.5	112.5	-3.01093975145494	-1.87804584656438	0.2	0	0	0	220.855400907341	220.95537918387	0.0999782765284181	0.200052858097479
74069	100	443	3	43	1	1	0	2	2	0	1	112.5	67.5	0.999985545170388	0.232206164011879	0.2	0	0	0	221.155406441772	221.255374722183	0.0999682804103941	0.200027257902548
74144	100	444	3	44	1	1	0	2	2	0	1	112.5	67.5	0.865388366710693	-2.66971221376469	0.2	0	0	0	221.455410513328	221.555393909803	0.099983396474272	0.200035791145638
74219	100	445	3	45	1	1	0	2	2	0	1	112.5	157.5	1.02950228140493	2.16784462534659	0.2	0	0	0	221.755405807868	221.855391398771	0.0999855909030885	0.200011898064986
74294	100	446	3	46	1	1	0	2	2	0	2	157.5	112.5	0.137222963720706	-0.307346469204467	0.2	0	0	0	222.055431578541	222.155412049266	0.0999804707244039	0.20004017977044
74369	100	447	3	47	1	1	0	2	2	0	2	67.5	112.5	-1.48620955897793	-1.80699677590481	0.2	0	0	0	222.355438575847	222.455423435196	0.0999848593492061	0.200026526581496
74444	100	448	3	48	1	1	0	2	2	0	1	22.5	157.5	-2.40300547036564	-1.8347511283556	0.2	0	0	0	222.655448255129	222.755426287884	0.0999780327547342	0.200024819932878
74519	100	449	3	49	1	1	0	2	2	0	1	22.5	67.5	2.36494890252045	0.277229855080976	0.2	0	0	0	222.955456471536	223.055436454713	0.099979983177036	0.200030183652416
74594	100	450	3	50	1	1	0	2	2	0	2	67.5	22.5	-0.998290924900381	0.0674305110191935	0.2	0	0	0	223.255453228718	223.355446377769	0.0999931490514427	0.200016774004325
74669	100	451	3	51	1	1	0	2	2	0	2	157.5	22.5	2.64580841609549	1.00840891454675	0.2	0	0	0	223.555470466148	223.655436064582	0.0999655984342098	0.200024088378996
74744	100	452	3	52	1	1	0	2	2	0	1	112.5	67.5	2.38793574875118	-2.71356252207711	0.2	0	0	0	223.855480632978	223.955463541904	0.0999829089269042	0.200044568395242
74819	100	453	3	53	1	1	0	2	2	3	2	157.5	22.5	-2.32206177041658	-0.850972594071399	0.2	0	0	0	224.155487874057	224.255468588788	0.0999807147309184	0.20002433215268
74894	100	454	3	54	1	1	0	2	2	3	2	67.5	112.5	2.24990576170272	-1.7678829120984	0.2	0	0	0	224.455494383816	224.555477292743	0.0999829089269042	0.200025795027614
74969	100	455	3	55	1	1	0	2	2	3	1	22.5	67.5	0.247064720145654	2.03181416097621	0.2	0	0	0	224.755481876433	224.855461615836	0.0999797394033521	0.200004583690315
75044	100	456	3	56	1	1	0	2	2	2	-1	135	0	1.82973036206145	0.465403787986909	0.2	0	0	0	225.055491799489	225.155498114182	0.100006314693019	0.200030183652416
75119	100	457	3	57	1	1	0	2	2	3	1	112.5	67.5	1.30633991838471	2.20993384853881	0.2	0	0	0	225.355522690108	225.455500235315	0.0999775452073663	0.200024575926363
75194	100	458	3	58	1	1	0	2	2	3	1	22.5	157.5	-3.10054070285594	1.92882377848912	0.2	0	0	0	225.655509451171	225.755490409676	0.0999809585046023	0.200009215855971
75269	100	459	3	59	1	1	0	2	2	3	2	67.5	22.5	-0.556841519854109	-1.15914893970494	0.2	0	0	0	225.95551352296	226.055497163208	0.0999836402479559	0.20002311328426
75344	100	460	3	60	1	1	0	2	2	3	2	157.5	112.5	0.960982663876354	0.386710503588258	0.2	0	0	0	226.255549045978	226.355525615858	0.0999765698798001	0.200051882769912
75419	100	461	3	61	1	1	0	2	2	0	1	112.5	157.5	-0.909426481471628	1.49978818296366	0.2	0	0	0	226.555555311963	226.655514327576	0.0999590156134218	0.200029696105048
75494	100	462	3	62	1	1	0	2	2	0	1	22.5	67.5	-0.316637176260138	-0.485525671920353	0.2	0	0	0	226.855537928175	226.955520105781	0.0999821776058525	0.200023600598797
75569	100	463	3	63	1	1	0	2	2	0	1	112.5	157.5	-1.978015143357	1.1997377376555	0.2	0	0	0	227.155576376943	227.255529541289	0.0999531643465161	0.200056271161884
75644	100	464	3	64	1	1	0	2	2	0	1	112.5	157.5	1.38764787362757	0.773993695623714	0.2	0	0	0	227.455555580091	227.555535807041	0.09998022695072	0.200026038801298
75719	100	465	3	65	1	1	0	2	2	0	2	67.5	112.5	1.04044015898195	-2.32716373739405	0.2	0	0	0	227.755560383201	227.855566697661	0.100006314460188	0.200024576159194
75794	100	466	3	66	1	1	0	2	2	0	1	112.5	157.5	1.90227888554619	2.58829812378373	0.2	0	0	0	228.055576645304	228.155576620717	0.099999975413084	0.200009947642684
75869	100	467	3	67	1	1	0	2	2	0	1	112.5	67.5	2.46772692328852	2.83509303300352	0.2	0	0	0	228.355574621586	228.455592639046	0.100018017459661	0.199998000869527
75944	100	468	3	68	1	1	0	2	2	0	1	22.5	157.5	-0.013723600720613	-1.40949248381667	0.2	0	0	0	228.655614533229	228.755590615561	0.0999760823324323	0.20002189418301
76019	100	469	3	69	1	1	0	2	2	0	1	22.5	157.5	1.60267332433514	2.68670035471939	0.2	0	0	0	228.955622505862	229.055581033695	0.0999585278332233	0.200031890301034
76094	100	470	3	70	1	1	0	2	2	0	2	157.5	22.5	0.0254013841966532	-2.95237149336715	0.2	0	0	0	229.25562487077	229.355591444531	0.0999665737617761	0.20004383707419
76169	100	471	3	71	1	1	0	2	2	0	1	112.5	67.5	-0.457468743899365	2.22578813558603	0.2	0	0	0	229.555609437637	229.655594296986	0.0999848593492061	0.200017993105575
76244	100	472	3	72	1	1	0	2	2	0	1	22.5	157.5	0.953669949263709	1.07696511100126	0.2	0	0	0	229.855623261537	229.955602757167	0.0999794956296682	0.200028964551166
76319	100	473	3	73	1	1	0	2	2	0	1	22.5	67.5	2.55765343238689	2.46224137124672	0.2	0	0	0	230.155629283749	230.255608779378	0.0999794956296682	0.200026526581496
76394	100	474	3	74	1	1	0	2	2	0	2	67.5	112.5	-0.172878509567929	0.969680958834051	0.2	0	0	0	230.455657004844	230.555643570842	0.0999865659978241	0.200048225466162
76469	100	475	3	75	1	1	0	2	2	3	2	157.5	22.5	-0.933166839329969	2.74937850027063	0.2	0	0	0	230.755666440353	230.855651299702	0.0999848593492061	0.200022869510576
76544	100	476	3	76	1	1	0	2	2	3	2	157.5	112.5	2.52412963493525	-0.766886338340304	0.2	0	0	0	231.055659052916	231.15566317318	0.100004120264202	0.200007753213868
76619	100	477	3	77	1	1	0	2	2	3	1	112.5	67.5	2.6045978899256	1.19967206946533	0.2	0	0	0	231.355684823589	231.45566505054	0.09998022695072	0.200021650409326
76694	100	478	3	78	1	1	0	2	2	1	-1	0	135	1.10927472143984	0.426941495747515	0.2	0	0	0	231.655690601794	231.755654006032	0.099963404238224	0.20002555125393
76769	100	479	3	79	1	1	0	2	2	3	2	67.5	22.5	-3.11474572807944	-0.607424229929344	0.2	0	0	0	231.95568272681	232.055662466213	0.0999797394033521	0.200028720777482
76844	100	480	3	80	1	1	0	2	2	3	2	67.5	112.5	0.0954931572179856	2.9303883097117	0.2	1	0.492229665629566	1	232.255667049903	232.355693113059	0.100026063155383	0.200004583690315
76919	100	481	3	81	1	1	0	2	2	3	1	112.5	157.5	2.14350450368817	-2.84221697362049	0.2	0	0	0	232.555715982337	232.655695965514	0.099979983177036	0.200022869277745
76994	100	482	3	82	1	1	0	2	2	3	1	22.5	157.5	1.72082371473349	0.978481286422696	0.2	0	0	0	232.855727855815	232.955704425927	0.0999765701126307	0.200031890301034
77069	100	483	3	83	1	1	0	2	2	0	2	157.5	112.5	-1.90155928707639	1.78991807043274	0.2	0	0	0	233.155735584674	233.25569655071	0.0999609660357237	0.200031158747151
77144	100	484	3	84	1	1	0	2	2	0	1	22.5	157.5	-1.52534178739823	-2.83205716595134	0.2	0	0	0	233.455717957346	233.555696233874	0.0999782765284181	0.200021406635642
77219	100	485	3	85	1	1	0	2	2	0	2	67.5	22.5	0.940023861372066	0.721143494575945	0.2	0	0	0	233.755728367949	233.855730537791	0.1000021698419	0.200032134074718
77294	100	486	3	86	1	1	0	2	2	0	2	67.5	22.5	-1.28126187376581	3.03741080048834	0.2	0	0	0	234.055735365255	234.155772399856	0.100037034600973	0.200004827463999
77369	100	487	3	87	1	1	0	2	2	0	2	67.5	112.5	-2.72380214033296	-3.07338333911238	0.2	1	0	0	234.355761379702	234.455749896355	0.0999885166529566	0.199988979846239
77444	100	488	3	88	1	1	0	2	2	0	1	22.5	157.5	-2.87019603775012	0.389785366493532	0.2	0	0	0	234.655775691383	234.755753480364	0.0999777889810503	0.200025795027614
77519	100	489	3	89	1	1	0	2	2	0	2	157.5	22.5	1.08413055019523	-0.977731737695419	0.2	0	0	0	234.955782201141	235.055739022326	0.0999568211846054	0.200028720777482
77594	100	490	3	90	1	1	0	2	2	0	2	67.5	112.5	1.30971112148544	1.09649912016581	0.2	0	0	0	235.255769205978	235.355752602685	0.0999833967071027	0.200030183652416
77669	100	491	3	91	1	1	0	2	2	0	2	157.5	22.5	1.15617067802284	-2.30563131884369	0.2	0	0	0	235.555800096598	235.655761550413	0.0999614538159221	0.20004749391228
77744	100	492	3	92	1	1	0	2	2	0	1	112.5	67.5	2.54434887508026	-0.91088141813181	0.2	0	0	0	235.855773936026	235.95577269257	0.0999987565446645	0.200012385612354
77819	100	493	3	93	1	1	0	2	2	0	1	22.5	67.5	1.23309486294831	3.03712278425611	0.2	0	0	0	236.155796293169	236.255796756595	0.100000463426113	0.200023600598797
77894	100	494	3	94	1	1	0	2	2	0	2	67.5	112.5	1.00701944751943	-2.18336091776354	0.2	0	0	0	236.455820357194	236.555802047253	0.0999816900584847	0.200023600598797
77969	100	495	3	95	1	1	0	2	2	0	2	157.5	112.5	2.30375938436164	0.217701628221736	0.2	0	0	0	236.755828817375	236.855794172036	0.0999653546605259	0.200026770122349
78044	100	496	3	96	1	1	0	2	2	0	2	157.5	112.5	-0.780485273382042	-2.66836276947242	0.2	0	0	0	237.055818260415	237.155812384794	0.099994124379009	0.200024088378996
78119	100	497	3	97	1	1	0	2	2	0	2	67.5	22.5	1.40719529388593	2.65343800898026	0.2	0	0	0	237.355826233048	237.455810361076	0.0999841280281544	0.200013848254457
78194	100	498	3	98	1	1	0	2	2	0	2	67.5	22.5	-0.569273372434496	-2.39207496343072	0.2	0	0	0	237.655838106526	237.755812238436	0.0999741319101304	0.200027745449916
78269	100	499	3	99	1	1	0	2	2	0	2	157.5	112.5	2.09896170375841	1.12138301883821	0.2	0	0	0	237.955841446761	238.055831913836	0.0999904670752585	0.20002920832485
78344	100	500	3	100	1	1	0	2	2	0	1	22.5	157.5	0.201704404063898	1.44210793197565	0.2	0	0	0	238.25584795652	238.355827939697	0.099979983177036	0.200016042683274
78419	100	501	3	101	1	1	0	2	2	0	2	157.5	112.5	-1.6561347832291	-1.61254753246231	0.2	0	0	0	238.555857392028	238.65583883808	0.0999814460519701	0.200029452331364
78494	100	502	3	102	1	1	0	2	2	0	2	67.5	112.5	-1.14734934236043	0.876555018964623	0.2	0	0	0	238.855886332225	238.95584607916	0.0999597469344735	0.20004749414511
78569	100	503	3	103	1	1	0	2	2	0	1	112.5	67.5	-1.08515471119085	-2.72865048930649	0.2	0	0	0	239.155895523727	239.255876482232	0.0999809585046023	0.200049444567412
78644	100	504	3	104	1	1	0	2	2	0	2	157.5	112.5	0.786123874589	0.808158842805982	0.2	0	0	0	239.455901058158	239.555877628271	0.0999765701126307	0.200024575926363
78719	100	505	3	105	1	1	0	2	2	0	1	22.5	67.5	-1.80853884880665	1.15468491381208	0.2	0	0	0	239.7558870879	239.85586658353	0.0999794956296682	0.200009459629655
78794	100	506	3	106	1	1	0	2	2	0	2	67.5	22.5	1.08043051811713	-1.62516713825741	0.2	0	0	0	240.05589481676	240.155877725687	0.0999829089269042	0.200028233230114
78869	100	507	3	107	1	1	0	2	2	0	2	157.5	112.5	0.838459147858538	-0.355623578980932	0.2	0	0	0	240.355901082745	240.455873751547	0.0999726688023657	0.200023357057944
78944	100	508	3	108	1	1	0	2	2	0	1	112.5	67.5	1.99340305441447	1.86704712640553	0.2	0	0	0	240.655929291388	240.755886844127	0.0999575527384877	0.200055539840832
79019	100	509	3	109	1	1	0	2	2	0	2	157.5	22.5	-0.67002049091912	-2.66089888889605	0.2	0	0	0	240.955916784005	241.055897010956	0.09998022695072	0.200029939878732
79094	100	510	3	110	1	1	0	2	2	0	2	157.5	112.5	-3.11844227869934	-0.231457461887306	0.2	0	0	0	241.255926219514	241.355930583552	0.100004364037886	0.20002920855768
79169	100	511	3	111	1	1	0	2	2	3	1	22.5	157.5	-0.121725472430244	-1.61323946484334	0.2	0	0	0	241.555956622586	241.655920514371	0.0999638917855918	0.200026039034128
79244	100	512	3	112	1	1	0	2	2	3	1	22.5	67.5	-0.927827737054872	-2.60738394300136	0.2	0	0	0	241.855945334071	241.95593019342	0.0999848593492061	0.200024819700047
79319	100	513	3	113	1	1	0	2	2	3	2	67.5	112.5	2.71849472163601	1.3832633778203	0.2	0	0	0	242.155954281799	242.25593792228	0.0999836404807866	0.200024088378996
79394	100	514	3	114	1	1	0	2	2	2	-1	135	0	2.75699715708039	2.88409229011544	0.2	0	0	0	242.455946894363	242.555967350025	0.100020455662161	0.200008972082287
79469	100	515	3	115	1	1	0	2	2	3	2	67.5	22.5	-2.41572842620179	-1.7771644699671	0.2	0	0	0	242.755990219535	242.855939238798	0.0999490192625672	0.200022869510576
79544	100	516	3	116	1	1	0	2	2	3	1	112.5	157.5	-2.08336705396317	1.40703728902405	0.2	0	0	0	243.055966252927	243.155977687566	0.100011434638873	0.200027014128864
79619	100	517	3	117	1	1	0	2	2	3	2	157.5	112.5	0.106626471888413	2.90289281241941	0.2	0	0	0	243.355980320834	243.455961279338	0.0999809585046023	0.200002633268014
79694	100	518	3	118	1	1	0	2	2	3	1	112.5	67.5	0.321361788565535	2.87976013334992	0.2	0	0	0	243.655983904842	243.75596803287	0.0999841280281544	0.200022625504062
79769	100	519	3	119	1	1	0	2	2	0	2	67.5	112.5	0.0846556756768169	-0.509313362940912	0.2	0	0	0	243.956006262219	244.055985513842	0.0999792516231537	0.200038229348138
79844	100	520	3	120	1	1	0	2	2	0	1	22.5	67.5	-3.06070582870193	-1.25715782751531	0.2	0	0	0	244.256009602221	244.355995436898	0.0999858346767724	0.200024088378996
79919	100	521	3	121	1	1	0	2	2	0	2	157.5	112.5	-1.55727929024202	2.84671113974875	0.2	0	0	0	244.556042931043	244.656004628632	0.099961697589606	0.20004749414511
79994	100	522	3	122	1	1	0	2	2	0	2	157.5	112.5	1.98444270428115	2.30194803258342	0.2	0	0	0	244.856030911207	244.956008700188	0.0999777889810503	0.200026282574981
80069	100	523	3	123	1	1	0	2	2	0	1	112.5	67.5	0.775658628726	1.75050639264623	0.2	0	0	0	245.156034495216	245.256018135697	0.0999836404807866	0.200025795027614
80144	100	524	3	124	1	1	0	2	2	0	2	157.5	22.5	2.58117405629227	-2.24574883364142	0.2	0	0	0	245.45604905067	245.556025133003	0.0999760823324323	0.200030914973468
80219	100	525	3	125	1	1	0	2	2	0	1	112.5	157.5	2.13440433013996	-0.93934325795982	0.2	0	0	0	245.756073602242	245.856034812285	0.0999612100422382	0.200048469239846
80294	100	526	3	126	1	1	0	2	2	0	1	22.5	67.5	2.62762427207224	2.3789229222332	0.2	0	0	0	246.056059875758	246.156041322043	0.0999814462848008	0.200025063473731
80369	100	527	3	127	1	1	0	2	2	0	1	112.5	67.5	-0.982653444499607	1.19624510578019	0.2	0	0	0	246.356070530368	246.456074163085	0.100003632716835	0.20002920832485
80444	100	528	3	128	1	1	0	2	2	0	1	22.5	157.5	0.819313563908247	-1.90971639698169	0.2	0	0	0	246.656098739011	246.756057267077	0.099958528066054	0.200024575926363
80519	100	529	3	129	1	1	0	2	2	0	2	157.5	22.5	-1.08068272905744	0.175164723845982	0.2	0	0	0	246.956078429706	247.056063776836	0.0999853471294045	0.200021162629128
80594	100	530	3	130	1	1	0	2	2	0	1	112.5	157.5	2.08669449742782	-2.92727137475733	0.2	0	0	0	247.256108589005	247.356065410422	0.099956821417436	0.200044812168926
80669	100	531	3	131	1	1	0	2	2	0	2	67.5	22.5	-2.19791224784715	-0.98693706590717	0.2	0	0	0	247.556089254795	247.65607435815	0.0999851033557206	0.200023844372481
80744	100	532	3	132	1	1	0	2	2	0	1	22.5	157.5	-0.973281222200991	2.67634613641673	0.2	0	0	0	247.856100884732	247.956083062105	0.0999821773730218	0.200026526581496
80819	100	533	3	133	1	1	0	2	2	0	2	67.5	22.5	-0.29436867220932	-0.748763773416754	0.2	0	0	0	248.156118121929	248.256120535778	0.100002413848415	0.200035059824586
80894.25	100	534	3	134	1	1	0	2	2	0	1	22.5	67.5	2.00020011326656	0.680169722071553	0.2	0	0	0	248.456140235532	248.556123632006	0.099983396474272	0.200019699754193
80969.25	100	535	3	135	1	1	0	2	2	0	2	157.5	22.5	-2.54335396329598	-1.20592436750377	0.2	0	0	0	248.756154790986	248.856133311288	0.099978520302102	0.200031158979982
81044.25	100	536	3	136	1	1	0	2	2	0	1	112.5	157.5	1.8946937878864	-1.64520647158222	0.2	0	0	0	249.056157887215	249.156137626851	0.0999797396361828	0.200024575926363
81119.25	100	537	3	137	1	1	0	2	2	0	1	22.5	157.5	-2.38737118850724	-1.94343620816537	0.2	0	0	0	249.356163177872	249.456152669853	0.0999894919805229	0.200025551021099
81194.25	100	538	3	138	1	1	0	2	2	0	2	67.5	22.5	-1.62918044928935	-1.55641987969672	0.2	0	0	0	249.65617261338	249.756130653666	0.0999580402858555	0.200019943527877
81269.25	100	539	3	139	1	1	0	2	2	0	1	112.5	157.5	0.923542251124528	-0.154230669765063	0.2	0	0	0	249.956154498272	250.056165445363	0.100010947091505	0.200023844605312
81344.25	100	540	3	140	1	1	0	2	2	3	2	157.5	22.5	-1.35114180599001	-2.1787392367147	0.2	0	0	0	250.256191240391	250.356149037136	0.0999577967450023	0.200025795027614
81419.25	100	541	3	141	1	1	0	2	2	3	1	22.5	157.5	-0.536887236829737	3.00058817867629	0.2	0	0	0	250.556198481703	250.656182121951	0.0999836402479559	0.200049444567412
81494.25	100	542	3	142	1	1	0	2	2	3	2	67.5	22.5	1.96716848684103	1.82585333253287	0.2	0	0	0	250.85618256079	250.956171564991	0.0999890042003244	0.200000438839197
81569.25	100	543	3	143	1	1	0	2	2	3	1	112.5	67.5	-2.33157430659101	1.16259608094392	0.2	0	0	0	251.156187120127	251.256169053726	0.0999819335993379	0.200015555135906
83323.25	100	544	4	0	1	2	0	2	2	3	1	22.5	157.5	1.91224259413602	2.14445629333644	0.2	0	0	0	258.173085320508	258.273060427513	0.099975107004866	-1
83398.25	100	545	4	1	1	2	0	2	2	3	1	112.5	157.5	-1.38901114168578	0.893640566665299	0.2	0	0	0	258.473090123618	258.573057428701	0.0999673050828278	0.200029696105048
83473.25	100	546	4	2	1	2	0	2	2	3	2	157.5	22.5	1.61575040144492	2.87396664721097	0.2	0	0	0	258.773075909587	258.873084418476	0.100008508889005	0.200018480885774
83548.25	100	547	4	3	1	2	0	2	2	3	2	67.5	112.5	-0.919858081425081	-1.8067652968066	0.2	0	0	0	259.073081687791	259.173065328272	0.0999836404807866	0.199997269315645
83623.25	100	548	4	4	1	2	0	2	2	0	2	67.5	22.5	-0.933750005237545	0.157807836371115	0.2	0	0	0	259.373091367073	259.473073300673	0.0999819335993379	0.200026038801298
83698.25	100	549	4	5	1	2	0	2	2	0	1	22.5	67.5	0.396253776748571	-1.88290054851994	0.2	0	0	0	259.673096657731	259.77307566558	0.0999790078494698	0.200023357057944
83773.25	100	550	4	6	1	2	0	2	2	0	1	112.5	157.5	-3.04704994637445	-2.55160465461532	0.2	0	0	0	259.973120965529	260.073090708815	0.0999697432853281	0.200045299949124
83848.25	100	551	4	7	1	2	0	2	2	0	1	22.5	157.5	0.654177075352857	0.499107140121291	0.2	0	0	0	260.273116747616	260.373120380333	0.100003632716835	0.200026038801298
83923.25	100	552	4	8	1	2	0	2	2	0	2	67.5	112.5	-0.069179562696855	3.07216439974797	0.2	0	0	0	260.573120575398	260.67312615877	0.100005583371967	0.200000195065513
83998.25	100	553	4	9	1	2	0	2	2	0	1	22.5	157.5	1.60516980352584	1.52794939463709	0.2	0	0	0	260.873132205103	260.973119502654	0.0999872975517064	0.200006046332419
84073.25	100	554	4	10	1	2	0	2	2	0	1	112.5	67.5	-2.12894151313575	-2.01465407634764	0.2	0	0	0	261.173141640611	261.273143079132	0.100001438520849	0.200022137956694
84148.25	100	555	4	11	1	2	0	2	2	0	1	112.5	157.5	1.53028171221178	1.49925770893079	0.2	0	0	0	261.473153757863	261.573130083969	0.0999763261061162	0.200010678730905
84223.5	100	556	4	12	1	2	0	2	2	0	2	157.5	22.5	1.46890903626004	-1.79743919197356	0.2	0	0	0	261.773178309435	261.873137325048	0.0999590156134218	0.200048225466162
84298.5	100	557	4	13	1	2	0	2	2	0	1	22.5	157.5	2.9164921624766	3.03132799715877	0.2	0	0	0	262.073186525842	262.17314993008	0.099963404238224	0.200049200793728
84373.5	100	558	4	14	1	2	0	2	2	0	1	112.5	157.5	-2.14526102754606	0.632682777765966	0.2	0	0	0	262.373173530912	262.47315473319	0.0999812022782862	0.200023600831628
84448.5	100	559	4	15	1	2	0	2	2	0	2	157.5	22.5	-1.37104792895182	1.4830139488935	0.2	0	0	0	262.67320369021	262.773181478959	0.0999777887482196	0.200048957020044
84523.5	100	560	4	16	1	2	0	2	2	0	2	67.5	22.5	2.94230280724152	-2.30361008277834	0.2	0	0	0	262.973190451274	263.073176773498	0.0999863222241402	0.200008972315118
84598.5	100	561	4	17	1	2	0	2	2	0	2	157.5	112.5	-0.789890306912505	2.12666213897651	0.2	0	0	0	263.27319501061	263.373197911773	0.100002901162952	0.20001823711209
84673.5	100	562	4	18	1	2	0	2	2	0	2	157.5	112.5	-1.38498945219646	2.82113773626243	0.2	0	0	0	263.57320590876	263.673209541477	0.100003632716835	0.200007996987551
84748.5	100	563	4	19	1	2	0	2	2	0	1	22.5	157.5	0.400189176690932	-0.0552031676031337	0.2	0	0	0	263.87321607559	263.973209468415	0.0999933928251266	0.200006534112617
84823.5	100	564	4	20	1	2	0	2	2	0	1	112.5	67.5	-1.98556551989017	-1.23529358923558	0.2	0	0	0	264.173225998646	264.273204275174	0.0999782765284181	0.200016530230641
84898.5	100	565	4	21	1	2	0	2	2	0	2	67.5	112.5	3.02999766840596	-0.946759519252994	0.2	0	0	0	264.473250062671	264.573212491581	0.0999624289106578	0.200045787496492
84973.5	100	566	4	22	1	2	0	2	2	0	2	67.5	112.5	0.0265425984353738	1.22665399494586	0.2	0	0	0	264.773235117085	264.873221683316	0.0999865662306547	0.200022625504062
85048.5	100	567	4	23	1	2	0	2	2	0	2	157.5	22.5	-1.9151512572849	1.7926019675564	0.2	0	0	0	265.073246503016	265.173224779544	0.0999782765284181	0.200024819700047
85123.5	100	568	4	24	1	2	0	2	2	0	1	112.5	157.5	0.712457594047318	0.576169211720845	0.2	0	0	0	265.373243991751	265.473230314208	0.0999863224569708	0.200019212206826
85198.5	100	569	4	25	1	2	0	2	2	0	2	157.5	112.5	2.48423554822268	-0.0135460000421297	0.2	0	0	0	265.673252939712	265.773229265818	0.0999763261061162	0.200022625504062
85273.5	100	570	4	26	1	2	0	2	2	0	1	22.5	157.5	1.96558666546968	-0.278398160181929	0.2	0	0	0	265.973259205464	266.07323845732	0.0999792518559843	0.200029939645901
85348.5	100	571	4	27	1	2	0	2	2	0	2	67.5	22.5	1.60942523360981	-2.04342996755888	0.2	0	0	0	266.273292046739	266.373273249017	0.0999812022782862	0.20005358941853
85423.5	100	572	4	28	1	2	0	2	2	0	1	112.5	67.5	-1.59690587870155	-2.51971496852568	0.2	0	0	0	266.573300750693	266.673288535792	0.0999877850990742	0.200027501676232
85498.5	100	573	4	29	1	2	0	2	2	0	1	112.5	67.5	2.12869046719775	-2.61286634212217	0.2	0	0	0	266.873278490966	266.973295777105	0.100017286138609	0.199989955173805
85573.5	100	574	4	30	1	2	0	2	2	0	1	112.5	67.5	-1.27565652020629	2.74336536267305	0.2	0	0	0	267.173317183508	267.273303505732	0.0999863222241402	0.200021406402811
85648.5	100	575	4	31	1	2	0	2	2	0	2	157.5	112.5	1.38811511033306	1.47061544228735	0.2	0	0	0	267.473326375009	267.573308308842	0.0999819338321686	0.200022869277745
85723.5	100	576	4	32	1	2	0	2	2	0	1	112.5	67.5	2.24693457209149	-0.734887273620356	0.2	0	0	0	267.773331178119	267.873301652726	0.0999704746063799	0.200022869277745
85798.5	100	577	4	33	1	2	0	2	2	0	1	112.5	67.5	1.7799126441188	2.26173228542625	0.2	0	0	0	268.073332567932	268.17333156825	0.0999990003183484	0.200030915206298
85873.5	100	578	4	34	1	2	0	2	2	3	1	112.5	67.5	-0.476675361951892	2.2686798027203	0.2	0	0	0	268.373336883262	268.473338078009	0.100001194747165	0.200005315011367
85948.5	100	579	4	35	1	2	0	2	2	3	1	22.5	157.5	3.13342650510034	2.40954856868212	0.2	0	0	0	268.673348512966	268.773329471471	0.0999809585046023	0.200010434957221
86023.5	100	580	4	36	1	2	0	2	2	3	1	112.5	157.5	1.41188314843406	0.910948771858489	0.2	0	0	0	268.973353803623	269.073332567932	0.0999787643086165	0.20002433215268
86098.5	100	581	4	37	1	2	0	2	2	2	-1	45	0	2.72810352139923	3.12438590042759	0.2	0	0	0	269.273358850507	269.373342978535	0.0999841280281544	0.200026282574981
86173.5	100	582	4	38	1	2	0	2	2	3	2	67.5	22.5	-0.847895486942194	3.0444140446189	0.2	0	0	0	269.573367798468	269.673351926263	0.0999841277953237	0.200024819932878
86248.5	100	583	4	39	1	2	0	2	2	3	2	157.5	112.5	2.46509679625683	1.66527877600578	0.2	0	0	0	269.873396738665	269.973360874224	0.0999641355592757	0.200044812401757
86323.5	100	584	4	40	1	2	0	2	2	3	2	67.5	112.5	-2.59055207247685	-2.48419480933362	0.2	0	0	0	270.173384962603	270.273365921108	0.0999809585046023	0.200024088378996
86398.5	100	585	4	41	1	2	0	2	2	3	2	157.5	22.5	0.00977478422989231	-2.98563246959371	0.2	0	0	0	270.473408538848	270.573384864954	0.0999763261061162	0.20004261774011
86473.5	100	586	4	42	1	2	0	2	2	0	2	67.5	22.5	-3.12792068535731	-0.680153607302983	0.2	0	0	0	270.773404808715	270.873401371064	0.0999965623486787	0.200019943760708
86548.5	100	587	4	43	1	2	0	2	2	0	2	67.5	112.5	3.127958006188	-0.376919316690797	0.2	0	0	0	271.073408880271	271.173389838776	0.0999809585046023	0.200007509207353
86623.5	100	588	4	44	1	2	0	2	2	0	1	22.5	67.5	-1.75141123673609	-2.25069203138438	0.2	0	0	0	271.373415633803	271.473398298956	0.0999826651532203	0.200025795027614
86698.5	100	589	4	45	1	2	0	2	2	0	2	157.5	22.5	2.05087521373713	2.22570969277885	0.2	0	0	0	271.673451888375	271.773430896224	0.0999790078494698	0.20005358941853
86773.5	100	590	4	46	1	2	0	2	2	0	1	22.5	67.5	-0.0361928852999975	0.430516629586724	0.2	0	0	0	271.973435723688	272.073414243991	0.099978520302102	0.200004827463999
86848.5	100	591	4	47	1	2	0	2	2	0	1	22.5	157.5	-0.796936304247845	-0.681904397541177	0.2	0	0	0	272.273443940096	272.373444647063	0.100000706966966	0.200029696105048
86923.5	100	592	4	48	1	2	0	2	2	0	2	67.5	112.5	2.15133150127624	-3.01453936857092	0.2	0	0	0	272.573473611847	272.673433602555	0.0999599907081574	0.200028964783996
86998.5	100	593	4	49	1	2	0	2	2	0	1	22.5	67.5	-0.309368961313449	-0.340011695907691	0.2	0	0	0	272.873461835785	272.973445720039	0.0999838842544705	0.200028233230114
87073.5	100	594	4	50	1	2	0	2	2	0	2	157.5	22.5	2.70025535601821	1.74963775374215	0.2	0	0	0	273.173467613989	273.273445402971	0.0999777889810503	0.200021893950179
