onset	duration	total_event_number	stream_number	event_num_per_stream	timing_predictability	target_col	target_ori	n_targets	n_distractors	is_target	ori_pair_num	att_ori	unatt_ori	gabor_phase_att	gabor_phase_unatt	blank_dur	response	rt	correct	time_stimon	time_stimoff	stim_dur	ISI_dur
6440.75	100	0	0	0	2	2	0	1	2	3	2	157.5	22.5	2.46805107549253	0.531713466040878	0.233333333333333	0	0	0	138.322412856854	138.42237089714	0.0999580402858555	-1
6499	100	1	0	1	2	2	0	1	2	3	2	157.5	112.5	-1.28954979392197	0.839811963116557	0.133333333333333	0	0	0	138.555728660431	138.655721077695	0.0999924172647297	0.133357763290405
6553.25	100	2	0	2	2	2	0	1	2	3	2	67.5	22.5	0.221336096835613	-0.295463272013345	0.116666666666667	0	0	0	138.77236934891	138.87235274585	0.0999833969399333	0.116648271214217
6603.25	100	3	0	3	2	2	0	1	2	3	1	22.5	157.5	0.0902547002501528	-2.02347478786763	0.1	0	0	0	138.972403921187	139.072387805674	0.0999838844873011	0.100051175337285
6674	100	4	0	4	2	2	0	1	2	0	2	157.5	22.5	-2.64310088410754	-0.0473923847450197	0.183333333333333	0	0	0	139.255723613314	139.355702377856	0.0999787645414472	0.183335807640105
6740.75	100	5	0	5	2	2	0	1	2	0	2	157.5	112.5	-0.998763564961682	-0.963348712039587	0.166666666666667	0	0	0	139.522392084356	139.62237133598	0.0999792516231537	0.16668970650062
6840.75	100	6	0	6	2	2	0	1	2	0	2	157.5	22.5	-0.464784758827303	0.193863251760714	0.3	0	0	0	139.922405396122	140.022380990908	0.0999755947850645	0.300034060142934
6928.25	100	7	0	7	2	2	0	1	2	0	1	22.5	157.5	0.308438042790925	2.69665391281589	0.25	0	0	0	140.272410674952	140.372426741756	0.100016066804528	0.250029684044421
7003.25	100	8	0	8	2	2	0	1	2	0	2	67.5	22.5	0.273387973266369	-0.402577407889472	0.2	0	0	0	140.5724249864	140.672401800286	0.0999768138863146	0.199998244643211
7065.75	100	9	0	9	2	2	0	1	2	0	1	22.5	67.5	-0.854848408385608	3.12096598230562	0.15	0	0	0	140.822420780547	140.922407590784	0.0999868102371693	0.150018980260938
7132.5	100	10	0	10	2	2	0	1	2	0	2	157.5	22.5	0.104652994524141	2.70188773954887	0.166666666666667	0	0	0	141.089098516386	141.189081425313	0.0999829089269042	0.16669092560187
7186.5	100	11	0	11	2	2	0	1	2	0	1	22.5	67.5	-2.3962148500595	-1.83236571740194	0.116666666666667	0	0	0	141.3057884546	141.405789405573	0.100000950973481	0.116707029286772
7249	100	12	0	12	2	2	0	1	2	0	1	112.5	67.5	1.26789515391319	-0.00652475930061902	0.15	0	0	0	141.555812043138	141.655767889228	0.0999558460898697	0.150022637564689
7311.5	100	13	0	13	2	2	0	1	2	0	1	22.5	157.5	0.564076644640619	-2.35028887809724	0.15	0	0	0	141.805795159191	141.905801474117	0.100006314925849	0.150027269963175
7395	100	14	0	14	2	2	0	1	2	0	1	112.5	67.5	-1.96542933938412	-2.23582962581944	0.233333333333333	0	0	0	142.139158481266	142.239728971384	0.100570490118116	0.233357007149607
7445	100	15	0	15	2	2	0	1	2	0	2	67.5	22.5	-0.272350687894781	0.357737876772589	0.1	0	0	0	142.339136489667	142.439115497749	0.0999790080823004	0.0994075182825327
7511.5	100	16	0	16	2	2	0	1	2	0	1	112.5	67.5	0.0222116181983405	-2.84133792243697	0.166666666666667	0	0	0	142.605841044337	142.705803229474	0.0999621851369739	0.166725546587259
7607.5	100	17	0	17	2	2	0	1	2	0	2	67.5	112.5	-0.0373171873876075	1.65914748301505	0.283333333333333	0	0	0	142.989153154194	143.089137282223	0.0999841280281544	0.283349924720824
7686.5	100	18	0	18	2	2	0	1	2	0	1	22.5	157.5	-1.70324859514705	1.29612735373328	0.216666666666667	0	0	0	143.305832096376	143.405817687511	0.0999855911359191	0.216694814153016
7761.5	100	19	0	19	2	2	0	1	2	0	2	157.5	22.5	-0.0871766951661526	3.00913089515658	0.2	0	0	0	143.605838118587	143.705821515061	0.099983396474272	0.200020431075245
7836.5	100	20	0	20	2	2	0	1	2	3	1	112.5	67.5	0.36505593322929	1.59383996181838	0.2	0	0	0	143.905839752406	144.005823879968	0.0999841275624931	0.200018237344921
7899	100	21	0	21	2	2	0	1	2	3	1	22.5	157.5	3.0562239264044	2.13431738592749	0.15	0	0	0	144.15587748168	144.255844055209	0.0999665735289454	0.150053601711988
7965.75	100	22	0	22	2	2	0	1	2	3	2	157.5	22.5	2.28076146868439	-1.08977901612811	0.166666666666667	0	0	0	144.422556192614	144.522534713149	0.0999785205349326	0.166712137404829
8015.75	100	23	0	23	2	2	0	1	2	2	-1	135	0	1.66887675771331	3.04882410773236	0.1	0	0	0	144.622560776304	144.72252466809	0.0999638917855918	0.100026063155383
8095	100	24	0	24	2	2	0	1	2	3	2	67.5	22.5	-0.896528061906284	-1.72616148957023	0.216666666666667	0	0	0	144.93923459854	145.039200196974	0.0999655984342098	0.216709930449724
8182.5	100	25	0	25	2	2	0	1	2	3	2	67.5	112.5	0.117954741989823	2.60832709405956	0.25	0	0	0	145.289246459957	145.389200843405	0.0999543834477663	0.250046262983233
8282.5	100	26	0	26	2	2	0	1	2	3	1	112.5	157.5	-1.09920958669178	2.65520820574101	0.3	0	0	0	145.689228320494	145.789206597023	0.0999782765284181	0.300027477089316
8365.75	100	27	0	27	2	2	0	1	2	3	1	22.5	67.5	0.605832132544531	1.59745260321027	0.233333333333333	0	0	0	146.022563604172	146.122552364599	0.0999887604266405	0.233357007149607
8440.75	100	28	0	28	2	2	0	1	2	0	2	67.5	112.5	1.81565492496429	1.87074193809568	0.2	0	0	0	146.322577916086	146.422560337465	0.0999824213795364	0.20002555148676
8520	100	29	0	29	2	2	0	1	2	0	1	112.5	67.5	1.78284152686897	-1.87973895809545	0.216666666666667	0	0	0	146.639279289171	146.739261466544	0.0999821773730218	0.216718951705843
8578.25	100	30	0	30	2	2	0	1	2	0	2	157.5	22.5	2.81195266698847	1.9435765576345	0.133333333333333	0	0	0	146.872623130679	146.972598724999	0.0999755943194032	0.133361664135009
8640.75	100	31	0	31	2	2	0	1	2	0	2	67.5	112.5	1.66217190718561	-1.81437597282477	0.15	0	0	0	147.122624776326	147.222578915767	0.0999541394412518	0.150026051327586
8728.25	100	32	0	32	2	2	0	1	2	0	1	22.5	67.5	1.77597092095262	-1.74971597181574	0.25	0	0	0	147.472632736433	147.572617596015	0.0999848595820367	0.250053820665926
8820	100	33	0	33	2	2	0	1	2	0	1	22.5	157.5	-0.249486210380715	-2.58696031540885	0.266666666666667	0	0	0	147.839288261253	147.939267512877	0.0999792516231537	0.266670665238053
8882.5	100	34	0	34	2	2	0	1	2	0	2	157.5	112.5	-1.71227535879525	1.92340592826117	0.15	0	0	0	148.089293564204	148.189276716672	0.0999831524677575	0.150026051327586
8936.75	100	35	0	35	2	2	0	1	2	0	2	67.5	22.5	-0.773811867904687	1.58985964612631	0.116666666666667	0	0	0	148.305993986316	148.405978845432	0.0999848591163754	0.116717269644141
9007.5	100	36	0	36	2	2	0	1	2	0	1	22.5	157.5	0.14229508756763	-0.38483126542536	0.183333333333333	0	0	0	148.589331964031	148.689287322573	0.0999553585425019	0.183353118598461
9057.5	100	37	0	37	2	2	0	1	2	0	1	22.5	157.5	-0.13743031176864	-2.87277945081922	0.1	0	0	0	148.78934410587	148.889319700655	0.0999755947850645	0.100056783296168
9145	100	38	0	38	2	2	0	1	2	0	2	157.5	22.5	-0.0110743465042882	-2.24452871533686	0.25	1	0	0	149.139319639653	149.239306205418	0.0999865657649934	0.249999938998371
9224.25	100	39	0	39	2	2	0	1	2	0	2	157.5	112.5	-3.06872100166366	1.97609569849859	0.216666666666667	0	0	0	149.455992974341	149.556018305942	0.100025331601501	0.216686768922955
9311.75	100	40	0	40	2	2	0	1	2	0	1	112.5	157.5	3.01989208930589	0.97495975118152	0.25	0	0	0	149.806013124995	149.905988963787	0.099975838791579	0.249994819052517
9365.75	100	41	0	41	2	2	0	1	2	0	1	112.5	157.5	-0.752725368628616	-1.39171468196173	0.116666666666667	0	0	0	150.022723299917	150.122691823635	0.0999685237184167	0.116734336130321
9415.75	100	42	0	42	2	2	0	1	2	0	2	157.5	112.5	-1.0745609225142	2.63645969085821	0.1	0	0	0	150.2227147175	150.322693969589	0.099979252088815	0.100022893864661
9474.25	100	43	0	43	2	2	0	1	2	0	1	22.5	67.5	2.17600190304868	0.354330336574862	0.133333333333333	0	0	0	150.456046856474	150.556031959597	0.09998510312289	0.133352886885405
9545	100	44	0	44	2	2	0	1	2	0	2	157.5	112.5	-0.685742042108469	-2.90023410023728	0.183333333333333	0	0	0	150.739389222581	150.83937456971	0.0999853471294045	0.183357262983918
9628.25	100	45	0	45	2	2	0	1	2	0	2	157.5	112.5	1.75317926895117	3.06835338877173	0.233333333333333	0	0	0	151.07273547817	151.1727149738	0.0999794956296682	0.233360908459872
9678.25	100	46	0	46	2	2	0	1	2	0	2	67.5	112.5	-2.49201692930139	-1.01450525062579	0.1	0	0	0	151.272738354746	151.372723458335	0.0999851035885513	0.100023380946368
9753.25	100	47	0	47	2	2	0	1	2	0	1	22.5	67.5	0.199970277372715	-0.259768975778617	0.2	0	0	0	151.572724384721	151.672728748992	0.100004364270717	0.200000926386565
9824.25	100	48	0	48	2	2	0	1	2	0	1	22.5	67.5	-2.85630280358282	2.48674767899721	0.183333333333333	0	0	0	151.856086255983	151.956069164909	0.0999829089269042	0.183357506990433
9886.75	100	49	0	49	2	2	0	1	2	0	2	67.5	22.5	0.030304968501456	2.69624768537114	0.15	0	0	0	152.106097409967	152.20607641805	0.0999790080823004	0.150028245057911
9986.75	100	50	0	50	2	2	0	1	2	0	2	67.5	22.5	1.84554724264778	-1.46424900306418	0.3	0	0	0	152.5061177928	152.606087292079	0.0999694992788136	0.300041374750435
10057.5	100	51	0	51	2	2	0	1	2	0	2	67.5	112.5	-1.46385145377907	2.44737266441901	0.183333333333333	0	0	0	152.789444799069	152.889427707996	0.0999829089269042	0.183357506990433
10120	100	52	0	52	2	2	0	1	2	0	2	157.5	22.5	0.922747668429883	-1.49356250197696	0.15	0	0	0	153.039446932264	153.139425940346	0.0999790080823004	0.150019224267453
10190.75	100	53	0	53	2	2	0	1	2	0	1	112.5	67.5	1.49421743436312	-2.99858661429869	0.183333333333333	0	0	0	153.322786617093	153.422768062912	0.0999814458191395	0.183360676746815
10278.25	100	54	0	54	2	2	0	1	2	0	2	157.5	112.5	-0.57024998353758	-2.68145510144129	0.25	0	0	0	153.672805305105	153.772787970025	0.0999826649203897	0.250037242192775
10345	100	55	0	55	2	2	0	1	2	0	1	112.5	157.5	-2.00670761156449	-2.12804218829549	0.166666666666667	0	0	0	153.939459878951	154.03946204856	0.10000216960907	0.166671908926219
10436.75	100	56	0	56	2	2	0	1	2	0	1	112.5	67.5	1.32411286631974	0.473432381896176	0.266666666666667	0	0	0	154.306155144237	154.406140003819	0.0999848595820367	0.266693095676601
10536.75	100	57	0	57	2	2	0	1	2	0	1	112.5	157.5	2.3292527254535	-1.4566624073826	0.3	0	0	0	154.706163092516	154.806150633842	0.0999875413253903	0.300023088697344
10603.25	100	58	0	58	2	2	0	1	2	0	1	22.5	157.5	2.75547043226597	2.14002371742611	0.166666666666667	0	0	0	154.972839852795	155.072824712377	0.0999848595820367	0.166689218953252
10670	100	59	0	59	2	2	0	1	2	0	2	67.5	112.5	3.04482140538095	-0.708372936831321	0.166666666666667	0	0	0	155.239511980675	155.339498790912	0.0999868102371693	0.166687268298119
10745	100	60	0	60	2	2	0	1	2	0	1	22.5	157.5	2.35784964628507	-2.68588481936904	0.2	0	0	0	155.539510201197	155.63947750628	0.0999673050828278	0.200011410284787
10820	100	61	0	61	2	2	0	1	2	0	1	112.5	67.5	-0.879889909331518	-0.0338591293209336	0.2	0	0	0	155.839520855341	155.939487672877	0.09996681753546	0.200043349061161
10878.25	100	62	0	62	2	2	0	1	2	3	2	157.5	112.5	1.59264820747284	-2.55418854729715	0.133333333333333	0	0	0	156.072846655268	156.172821030952	0.0999743756838143	0.133358982391655
10957.5	100	63	0	63	2	2	0	1	2	3	2	67.5	112.5	1.83638686379424	-3.09166588938922	0.216666666666667	1	0	0	156.38951487001	156.489498510491	0.0999836404807866	0.21669383905828
11053.25	100	64	0	64	2	2	0	1	2	3	1	112.5	157.5	-0.324503959600672	2.68214402533613	0.283333333333333	0	0	0	156.772886225488	156.872854993679	0.0999687681905925	0.283387714996934
11115.75	100	65	0	65	2	2	0	1	2	1	-1	0	45	2.47968706051909	-2.50335696742056	0.15	0	0	0	157.022895916831	157.122865172569	0.0999692557379603	0.150040923152119
11170	100	66	0	66	2	2	0	1	2	3	2	157.5	22.5	-2.33035000552009	-2.42614686717818	0.116666666666667	0	0	0	157.239563181065	157.339541457593	0.0999782765284181	0.116698008496314
11240.75	100	67	0	67	2	2	0	1	2	3	2	67.5	22.5	1.54127220370642	-1.50877475340057	0.183333333333333	0	0	0	157.522897989489	157.622883824166	0.0999858346767724	0.183356531895697
11290.75	100	68	0	68	2	2	0	1	2	3	1	112.5	67.5	1.26943771456501	-2.38743948871205	0.1	0	0	0	157.722904035822	157.822887432296	0.099983396474272	0.100020211655647
11378.25	100	69	0	69	2	2	0	1	2	3	1	22.5	157.5	-1.69736854789388	-0.412395299707773	0.25	0	0	0	158.07292199228	158.172903438564	0.0999814462848008	0.25003455998376
11449.25	100	70	0	70	2	2	0	1	2	0	2	67.5	22.5	-2.336411561515	1.05945447304312	0.183333333333333	0	0	0	158.356233638711	158.456218254287	0.0999846155755222	0.183330200146884
11515.75	100	71	0	71	2	2	0	1	2	0	1	22.5	67.5	1.13009180346498	-0.682343432464999	0.166666666666667	0	0	0	158.6229084488	158.722890626173	0.0999821773730218	0.166690194513649
11570	100	72	0	72	2	2	0	1	2	0	2	157.5	112.5	-2.59507022499584	0.292217239940653	0.116666666666667	0	0	0	158.839583270717	158.939564717002	0.0999814462848008	0.116692644543946
11649.25	100	73	0	73	2	2	0	1	2	0	2	67.5	112.5	-1.21443995913928	-2.81780090180916	0.216666666666667	0	0	0	159.156255874317	159.256272429135	0.100016554817557	0.216691157314926
11745	100	74	0	74	2	2	0	1	2	0	2	67.5	22.5	2.57898651590852	-2.12103942257859	0.283333333333333	0	0	0	159.539630155545	159.639596241526	0.0999660859815776	0.283357726410031
11845	100	75	0	75	2	2	0	1	2	0	1	112.5	67.5	1.49468976678286	-1.48137921388358	0.3	0	0	0	159.939662484452	160.039624182042	0.099961697589606	0.300066242925823
11903.25	100	76	0	76	2	2	0	1	2	0	2	67.5	112.5	-0.698165731860562	0.798623678758613	0.133333333333333	0	0	0	160.172977068927	160.272963878699	0.099986809771508	0.133352886885405
11990.75	100	77	0	77	2	2	0	1	2	0	2	67.5	112.5	-0.351933765103221	1.529322700482	0.25	0	0	0	160.522988686338	160.622958186083	0.0999694997444749	0.25002480763942
12049.25	100	78	0	78	2	2	0	1	2	0	1	22.5	157.5	-1.40038214547342	2.89588948502961	0.133333333333333	0	0	0	160.756338623352	160.85629495699	0.0999563336372375	0.133380437269807
12116	100	79	0	79	2	2	0	1	2	0	2	67.5	22.5	1.53021881593065	-0.181338972157075	0.166666666666667	0	0	0	161.023010019679	161.122969035525	0.0999590158462524	0.166715062689036
12203.5	100	80	0	80	2	2	0	1	2	0	1	112.5	67.5	0.378143305926947	-1.99395745146885	0.25	0	0	0	161.37300774036	161.473011860624	0.100004120264202	0.250038704834878
12299.25	100	81	0	81	2	2	0	1	2	0	1	112.5	157.5	0.776749987099497	-0.918700506225083	0.283333333333333	0	0	0	161.756360078231	161.856338598765	0.0999785205349326	0.283348217606544
12378.5	100	82	0	82	2	2	0	1	2	0	2	157.5	22.5	-1.68114510036594	-0.757716931736901	0.216666666666667	0	0	0	162.073030975182	162.172996573616	0.0999655984342098	0.216692376416177
12449.25	100	83	0	83	2	2	0	1	2	0	1	112.5	157.5	2.68786974118799	2.5586199320728	0.183333333333333	0	0	0	162.356372854207	162.45634040283	0.0999675486236811	0.183376280590892
12499.25	100	84	0	84	2	2	0	1	2	0	1	22.5	67.5	-1.506513722997	1.08629413372771	0.1	0	0	0	162.556378168985	162.656357908621	0.0999797396361828	0.100037766154855
12591	100	85	0	85	2	2	0	1	2	0	1	112.5	157.5	1.22326241501206	-0.09110718669046	0.266666666666667	0	0	0	162.923057586886	163.023034400772	0.0999768138863146	0.266699678264558
12649.25	100	86	0	86	2	2	0	1	2	0	1	112.5	67.5	3.04595709236054	-0.112187519871547	0.133333333333333	0	0	0	163.156390456948	163.256375560537	0.0999851035885513	0.133356056176126
12745	100	87	0	87	2	2	0	1	2	0	1	22.5	67.5	2.4251557196843	1.46316532044066	0.283333333333333	0	0	0	163.53973596869	163.639717902523	0.0999819338321686	0.283360408153385
12799.25	100	88	0	88	2	2	0	1	2	0	1	22.5	157.5	-2.83948955361785	1.30368523229509	0.116666666666667	0	0	0	163.75641127862	163.85639272444	0.0999814458191395	0.116693376097828
12882.5	100	89	0	89	2	2	0	1	2	0	2	67.5	112.5	0.265005119847332	2.60891002937365	0.233333333333333	0	0	0	164.089751438703	164.189733859617	0.0999824209138751	0.233358714263886
12941	100	90	0	90	2	2	0	1	2	0	1	112.5	157.5	1.35848289754181	0.0316774057007758	0.133333333333333	0	0	0	164.323091378901	164.423072825186	0.0999814462848008	0.133357519283891
13032.5	100	91	0	91	2	2	0	1	2	0	1	22.5	67.5	-0.307361561174385	1.61002783461754	0.266666666666667	0	0	0	164.689738126472	164.78975882614	0.100020699668676	0.266665301285684
13120	100	92	0	92	2	2	0	1	2	0	2	67.5	22.5	-1.45677170675058	2.9196169130965	0.25	0	0	0	165.039750719443	165.139727289323	0.0999765698798001	0.249991893302649
13174.25	100	93	0	93	2	2	0	1	2	0	2	157.5	22.5	-1.73576893274268	2.54208484613	0.116666666666667	0	0	0	165.256424078718	165.356406012084	0.0999819333665073	0.116696789395064
13236.75	100	94	0	94	2	2	0	1	2	0	1	112.5	157.5	-0.89307751591422	-2.15420761346833	0.15	0	0	0	165.506433526054	165.606410827488	0.0999773014336824	0.15002751396969
13332.5	100	95	0	95	2	2	0	1	2	0	1	112.5	67.5	0.968359163987245	2.96073617705325	0.283333333333333	1	0	0	165.889770504553	165.989760727622	0.0999902230687439	0.283359677065164
13432.5	100	96	0	96	2	2	0	1	2	0	1	22.5	157.5	0.252372452368372	0.320182194263103	0.3	0	0	0	166.289788936265	166.389769407455	0.0999804711900651	0.300028208643198
13532.5	100	97	0	97	2	2	0	1	2	0	1	22.5	67.5	2.16043765906672	2.50777048952099	0.3	0	0	0	166.689797616098	166.789777599275	0.099979983177036	0.300028208643198
13624.25	100	98	0	98	2	2	0	1	2	0	2	67.5	112.5	-1.43092411908908	2.49491638918746	0.266666666666667	0	0	0	167.056476302445	167.156453603879	0.0999773014336824	0.266698703169823
13703.5	100	99	0	99	2	2	0	1	2	0	1	112.5	157.5	1.02708848476059	2.21464264301635	0.216666666666667	0	0	0	167.373154757544	167.473130108323	0.0999753507785499	0.216701153665781
13782.5	100	100	0	100	2	2	0	1	2	0	1	22.5	67.5	2.9653706895951	1.86971944433608	0.216666666666667	0	0	0	167.689820778091	167.789837088902	0.100016310811043	0.216690669767559
13857.5	100	101	0	101	2	2	0	1	2	0	2	157.5	112.5	-0.988552047478198	1.47750272669743	0.2	0	0	0	167.989858983085	168.089841648005	0.0999826649203897	0.20002189418301
13953.5	100	102	0	102	2	2	0	1	2	0	2	157.5	22.5	-0.728532855989428	3.14032174562306	0.283333333333333	0	0	0	168.373203031719	168.473185696639	0.0999826649203897	0.283361383713782
14036.75	100	103	0	103	2	2	0	1	2	0	1	112.5	157.5	-1.0498848580995	0.523076550079864	0.233333333333333	0	0	0	168.70654684864	168.806528538931	0.0999816902913153	0.233361152000725
14099.25	100	104	0	104	2	2	0	1	2	3	1	112.5	157.5	-2.67238860673223	-1.49892026023103	0.15	0	0	0	168.9565548338	169.056535548065	0.0999807142652571	0.150026294868439
14149.25	100	105	0	105	2	2	0	1	2	3	2	157.5	22.5	-1.93215614622283	0.454302557264338	0.1	0	0	0	169.156560148578	169.256545495708	0.0999853471294045	0.100024600513279
14245	100	106	0	106	2	2	0	1	2	3	2	67.5	22.5	1.7718393318492	0.650794098781053	0.283333333333333	0	0	0	169.539902247023	169.639882717747	0.0999804707244039	0.283356751315296
14345	100	107	0	107	2	2	0	1	2	2	-1	135	0	-1.16225560334109	2.16365688191823	0.3	0	0	0	169.93987533031	170.039895541966	0.100020211655647	0.299992612563074
14420	100	108	0	108	2	2	0	1	2	3	1	22.5	157.5	-1.5373989091254	0.73493105668675	0.2	0	0	0	170.239922068547	170.339885228779	0.0999631602317095	0.200026526581496
14478.5	100	109	0	109	2	2	0	1	2	3	1	22.5	67.5	2.07457951293087	-0.493173030768476	0.133333333333333	0	0	0	170.473260546569	170.573216392659	0.0999558460898697	0.133375317789614
14532.5	100	110	0	110	2	2	0	1	2	3	2	157.5	112.5	-3.11526993458297	1.53241576785054	0.116666666666667	0	0	0	170.689910012297	170.78991876496	0.100008752662688	0.116693619638681
14616	100	111	0	111	2	2	0	1	2	3	1	112.5	67.5	-1.09147732081352	-0.121056062697366	0.233333333333333	0	0	0	171.023249440826	171.123228448909	0.0999790080823004	0.233330675866455
14699.25	100	112	0	112	2	2	0	1	2	0	1	22.5	67.5	-2.01562295110465	-1.67212830396784	0.233333333333333	0	0	0	171.356585456058	171.45657031564	0.0999848595820367	0.233357007149607
14778.5	100	113	0	113	2	2	0	1	2	0	2	67.5	22.5	-0.858264322813739	2.93360777992278	0.216666666666667	0	0	0	171.673262692057	171.773246088531	0.099983396474272	0.216692376416177
14828.5	100	114	0	114	2	2	0	1	2	0	1	112.5	67.5	-2.28857812983111	1.04272538556973	0.1	0	0	0	171.873268494383	171.973256035708	0.0999875413253903	0.100022405851632
14882.5	100	115	0	115	2	2	0	1	2	0	2	67.5	112.5	1.2687083780888	0.620063748102303	0.116666666666667	0	0	0	172.089940634556	172.189926713239	0.0999860786832869	0.116684598848224
14974.25	100	116	0	116	2	2	0	1	2	0	2	157.5	112.5	-1.42695703995025	1.84434606904671	0.266666666666667	0	0	0	172.456625416409	172.556605643593	0.0999802271835506	0.266698703169823
15057.5	100	117	0	117	2	2	0	1	2	0	2	157.5	22.5	1.10935624999398	0.350416592612028	0.233333333333333	0	0	0	172.789967527147	172.889953849372	0.0999863222241402	0.233361883554608
15149.25	100	118	0	118	2	2	0	1	2	0	2	157.5	22.5	-2.2876645377177	-0.244911761021041	0.266666666666667	0	0	0	173.156641824637	173.256652284414	0.100010459776968	0.266687975265086
15241	100	119	0	119	2	2	0	1	2	0	2	67.5	22.5	2.22789099723066	-2.79420196391011	0.266666666666667	0	0	0	173.52334147878	173.623328289017	0.0999868102371693	0.266689194366336
15295	100	120	0	120	2	2	0	1	2	0	1	112.5	67.5	-2.42456976784935	0.792483658501438	0.116666666666667	0	0	0	173.740016301163	173.839998478536	0.0999821773730218	0.11668801214546
15353.5	100	121	0	121	2	2	0	1	2	0	2	67.5	22.5	1.78816188935609	-1.41447155932217	0.133333333333333	0	0	0	173.973354535177	174.07334158849	0.0999870533123612	0.133356056641787
15449.25	100	122	0	122	2	2	0	1	2	0	1	22.5	157.5	-2.18497003822669	0.665937337943104	0.283333333333333	0	0	0	174.356702728663	174.456685393583	0.0999826649203897	0.283361140172929
15549.25	100	123	0	123	2	2	0	1	2	0	2	157.5	112.5	-0.405540760488813	2.53670360802339	0.3	1	0	0	174.756714577787	174.856672618072	0.0999580402858555	0.300029184203595
15649.25	100	124	0	124	2	2	0	1	2	0	2	67.5	112.5	0.655321680764196	1.28018153597516	0.3	0	0	0	175.15670155827	175.256707141642	0.100005583371967	0.30002894019708
15745.25	100	125	0	125	2	2	0	1	2	0	2	157.5	112.5	-2.56972812287889	1.4660350680173	0.283333333333333	0	0	0	175.540062429849	175.640047289431	0.0999848595820367	0.283355288207531
15795.25	100	126	0	126	2	2	0	1	2	0	2	157.5	22.5	0.253082012662519	-2.51711971884303	0.1	0	0	0	175.740072865039	175.840031636879	0.0999587718397379	0.100025575608015
15845.25	100	127	0	127	2	2	0	1	2	0	1	112.5	157.5	0.831873635195461	0.944261048586114	0.1	0	0	0	175.940051360987	176.040034269914	0.0999829089269042	0.100019724108279
15920.25	100	128	0	128	2	2	0	1	2	0	1	112.5	157.5	-0.508254467034004	2.56065102504374	0.2	0	0	0	176.240065184887	176.340046387166	0.0999812022782862	0.200030914973468
16003.5	100	129	0	129	2	2	0	1	2	0	1	22.5	157.5	1.51300350439272	0.201244965704694	0.233333333333333	0	0	0	176.573425093666	176.673408246133	0.0999831524677575	0.233378706499934
16086.75	100	130	0	130	2	2	0	1	2	0	2	67.5	22.5	0.235853059269262	1.11286543600247	0.233333333333333	0	0	0	176.90675086854	177.006755720358	0.100004851818085	0.233342622406781
16145.25	100	131	0	131	2	2	0	1	2	0	2	157.5	112.5	-2.86910752464943	-1.29308322005426	0.133333333333333	0	0	0	177.140106900595	177.240090541076	0.0999836404807866	0.133351180236787
16220.25	100	132	0	132	2	2	0	1	2	3	1	112.5	67.5	1.66942828265844	1.24315101446628	0.2	0	0	0	177.440096587408	177.540075107943	0.0999785205349326	0.200006046332419
16307.75	100	133	0	133	2	2	0	1	2	3	1	112.5	157.5	2.97577818069297	-1.53795183579768	0.25	0	0	0	177.790099915583	177.890084775165	0.0999848595820367	0.25002480763942
16386.75	100	134	0	134	2	2	0	1	2	3	1	22.5	67.5	-2.22260870849678	0.142431913238463	0.216666666666667	0	0	0	178.106775444932	178.206789317541	0.100013872608542	0.216690669767559
16482.75	100	135	0	135	2	2	0	1	2	3	2	67.5	112.5	-2.09261323425996	1.68655782172505	0.283333333333333	0	0	0	178.490147531498	178.590124832932	0.0999773014336824	0.283358213957399
19807.75	100	136	1	0	1	2	0	2	2	3	1	22.5	67.5	2.73844571639545	-2.15135165696209	0.2	0	0	0	191.790476601571	191.890458778944	0.0999821773730218	-1
19882.75	100	137	1	1	1	2	0	2	2	3	1	112.5	157.5	-0.267840405401198	-1.56496846369939	0.2	0	0	0	192.090534311254	192.190469189547	0.0999348782934248	0.200075532309711
19957.75	100	138	1	2	1	2	0	2	2	3	2	157.5	112.5	2.2631985827627	-2.11676540572024	0.2	0	0	0	192.39049693523	192.490477893502	0.0999809582717717	0.200027745682746
20032.75	100	139	1	3	1	2	0	2	2	3	1	112.5	67.5	-0.173544529263182	-1.03429402258799	0.2	0	0	0	192.690500031691	192.79048732901	0.0999872973188758	0.200022138189524
20107.75	100	140	1	4	1	2	0	2	2	0	1	22.5	67.5	-0.813935208164909	-2.26410522818465	0.2	0	0	0	192.990508004092	193.090493351221	0.0999853471294045	0.20002067508176
20182.75	100	141	1	5	1	2	0	2	2	0	1	112.5	157.5	-0.083075663391516	-1.81513008348227	0.2	0	0	0	193.290515488945	193.390506931115	0.0999914421699941	0.200022137723863
20257.75	100	142	1	6	1	2	0	2	2	0	1	22.5	157.5	-2.27372969051491	-2.77858265107939	0.2	0	0	0	193.590525899548	193.690507345833	0.0999814462848008	0.200018968433142
20332.75	100	143	1	7	1	2	0	2	2	0	1	22.5	157.5	-0.154376505707796	1.72862926702265	0.2	0	0	0	193.890555327758	193.99053921178	0.0999838840216398	0.200047981925309
20407.75	100	144	1	8	1	2	0	2	2	0	2	157.5	22.5	0.868724106801561	2.09487854319087	0.2	0	0	0	194.190562812611	194.290544989984	0.0999821773730218	0.200023600831628
20482.75	100	145	1	9	1	2	0	2	2	0	1	22.5	157.5	-2.20938164499615	0.493793955752045	0.2	0	0	0	194.490571029019	194.590557351243	0.0999863222241402	0.200026039034128
20557.75	100	146	1	10	1	2	0	2	2	0	1	22.5	157.5	-2.69474282754144	1.38499133353654	0.2	0	0	0	194.790559252724	194.890543624759	0.0999843720346689	0.200001901481301
20632.75	100	147	1	11	1	2	0	2	2	0	2	67.5	112.5	0.606467559764409	0.482489927652254	0.2	0	0	0	195.090564543381	195.19055257272	0.0999880293384194	0.200020918622613
20707.75	100	148	1	12	1	2	0	2	2	0	1	112.5	157.5	3.10080454683345	0.368374235308255	0.2	0	0	0	195.390580074396	195.490560788661	0.0999807142652571	0.200027501676232
20782.75	100	149	1	13	1	2	0	2	2	0	2	67.5	112.5	2.71334233752394	2.36819144478918	0.2	0	0	0	195.690583170392	195.790568517521	0.0999853471294045	0.200022381730378
20857.75	100	150	1	14	1	2	0	2	2	0	1	112.5	67.5	3.12823924107902	2.77719270938296	0.2	0	0	0	195.990589192603	196.090574539732	0.0999853471294045	0.20002067508176
20932.75	100	151	1	15	1	2	0	2	2	0	1	112.5	157.5	1.0999704358589	-1.33274159740604	0.2	0	0	0	196.290599359665	196.390586656984	0.0999872973188758	0.200024819932878
21007.75	100	152	1	16	1	2	0	2	2	0	1	22.5	157.5	1.79462574143049	0.224946363792634	0.2	0	0	0	196.590607088525	196.690589997452	0.0999829089269042	0.200020431540906
21082.75	100	153	1	17	1	2	0	2	2	0	2	67.5	112.5	1.66406625712339	0.949260618725775	0.2	0	0	0	196.89061896177	196.990596263204	0.0999773014336824	0.200028964318335
21157.75	100	154	1	18	1	2	0	2	2	0	2	67.5	112.5	0.541597033056245	2.00061005580264	0.2	0	0	0	197.19062376488	197.290627397597	0.100003632716835	0.200027501676232
21232.75	100	155	1	19	1	2	0	2	2	0	2	157.5	112.5	0.262849216386407	2.89974473746714	0.2	0	0	0	197.490632956382	197.59062001016	0.0999870537780225	0.200005558785051
21307.75	100	156	1	20	1	2	0	2	2	0	2	67.5	22.5	-0.195527251156091	-1.91667626193745	0.2	0	0	0	197.790642148349	197.890657727607	0.10001557925716	0.200022138189524
21382.75	100	157	1	21	1	2	0	2	2	0	2	67.5	22.5	1.59838350993684	-1.06506410344084	0.2	0	0	0	198.090650608297	198.190626203083	0.0999755947850645	0.199992880690843
21457.75	100	158	1	22	1	2	0	2	2	0	1	112.5	157.5	-1.26658582793987	2.0251712155142	0.2	0	0	0	198.390657362062	198.490639539436	0.0999821773730218	0.200031158979982
21532.75	100	159	1	23	1	2	0	2	2	0	2	157.5	112.5	2.16006282132468	0.0220303785968801	0.2	0	0	0	198.690665090457	198.790644342545	0.099979252088815	0.200025551021099
21607.75	100	160	1	24	1	2	0	2	2	0	2	157.5	112.5	2.33865528091818	3.12201095241098	0.2	0	0	0	198.990669650026	199.090656459797	0.099986809771508	0.200025307480246
21682.75	100	161	1	25	1	2	0	2	2	0	2	67.5	22.5	1.60883975157248	-1.45599228035967	0.2	0	0	0	199.290681767277	199.390664919745	0.0999831524677575	0.200025307480246
21757.75	100	162	1	26	1	2	0	2	2	0	2	67.5	22.5	-0.793152417730608	-0.830849871376513	0.2	0	0	0	199.590688520577	199.690660702065	0.0999721814878285	0.200023600831628
21832.75	100	163	1	27	1	2	0	2	2	0	1	112.5	67.5	0.453730325786433	-1.83083840466159	0.2	0	0	0	199.890724775381	199.990711585153	0.099986809771508	0.200064073316753
21907.75	100	164	1	28	1	2	0	2	2	0	2	157.5	112.5	-1.11929747223383	-0.24831822462741	0.2	0	0	0	200.190732747782	200.290715656709	0.0999829089269042	0.200021162629128
21982.75	100	165	1	29	1	2	0	2	2	0	2	157.5	112.5	0.019686047083364	0.564510401711838	0.2	0	0	0	200.49074413348	200.590727042872	0.0999829093925655	0.200028476770967
22057.75	100	166	1	30	1	2	0	2	2	0	2	157.5	22.5	-2.70207120308263	-0.88251090263301	0.2	0	0	0	200.790725531057	200.890709902626	0.0999843715690076	0.199998488184065
22132.75	100	167	1	31	1	2	0	2	2	0	2	67.5	112.5	-3.11637494627979	3.11647355754833	0.2	0	0	0	201.090729359072	201.190714949742	0.0999855906702578	0.200019456446171
22207.75	100	168	1	32	1	2	0	2	2	3	1	112.5	157.5	-1.46150806657858	2.89298937110978	0.2	0	0	0	201.390770001803	201.49074803479	0.0999780329875648	0.200055052060634
22282.75	100	169	1	33	1	2	0	2	2	3	2	67.5	22.5	-1.84429920018883	-1.4689398014579	0.2	0	0	0	201.690773585811	201.790740159806	0.0999665739946067	0.200025551021099
22357.75	100	170	1	34	1	2	0	2	2	3	1	22.5	157.5	3.12953197979604	-1.3321272560919	0.2	0	0	0	201.990781558678	202.090744718909	0.0999631602317095	0.20004139887169
22432.75	100	171	1	35	1	2	0	2	2	1	-1	0	45	-0.353422806903229	-2.74898811566523	0.2	0	0	0	202.290763199795	202.390771708451	0.100008508656174	0.200018480885774
22507.75	100	172	1	36	1	2	0	2	2	3	2	157.5	112.5	0.0358187770038647	-1.3651745322813	0.2	0	0	0	202.590803598985	202.690779193304	0.0999755943194032	0.200031890533864
22582.75	100	173	1	37	1	2	0	2	2	3	1	112.5	67.5	2.46148629858806	2.19887989757568	0.2	1	0.492168713361025	1	202.890787678305	202.990763516631	0.0999758383259177	0.200008485000581
22657.75	100	174	1	38	1	2	0	2	2	3	2	67.5	112.5	0.36988273186543	-1.53972460667402	0.2	0	0	0	203.190783704165	203.290771245491	0.0999875413253903	0.200020187534392
22732.75	100	175	1	39	1	2	0	2	2	3	1	22.5	67.5	-2.39083946772251	1.26427415570692	0.2	0	0	0	203.490792651661	203.590777755249	0.0999851035885513	0.200021406169981
22807.75	100	176	1	40	1	2	0	2	2	0	1	112.5	157.5	-1.7413581014375	-0.636983468986352	0.2	0	0	0	203.790803550277	203.890785483643	0.0999819333665073	0.200025795027614
22882.75	100	177	1	41	1	2	0	2	2	0	2	157.5	112.5	-2.5174148773484	1.22799778059122	0.2	0	0	0	204.090810060035	204.190794675611	0.0999846155755222	0.200024576392025
22957.75	100	178	1	42	1	2	0	2	2	0	2	157.5	22.5	-1.15133937578641	2.20461822167645	0.2	0	0	0	204.390848752577	204.490833611693	0.0999848591163754	0.200054076965898
23032.75	100	179	1	43	1	2	0	2	2	0	1	112.5	157.5	-1.89034474313816	-1.41958855745136	0.2	0	0	0	204.690855749883	204.790840608999	0.0999848591163754	0.200022138189524
23107.75	100	180	1	44	1	2	0	2	2	0	1	112.5	67.5	-1.32601822424752	2.99643531569538	0.2	0	0	0	204.990837634541	205.090821275022	0.0999836404807866	0.199997025541961
23182.75	100	181	1	45	1	2	0	2	2	0	1	112.5	157.5	-1.48089844872704	-2.15575949888269	0.2	0	0	0	205.29086194234	205.390830954537	0.0999690121971071	0.200040667317808
23257.75	100	182	1	46	1	2	0	2	2	0	2	67.5	22.5	1.8799234687621	-2.41217509761834	0.2	0	0	0	205.590883812401	205.690853799228	0.0999699868261814	0.200052857864648
23332.75	100	183	1	47	1	2	0	2	2	0	2	67.5	22.5	1.85005427347202	-2.3176338424034	0.2	0	0	0	205.890892759897	205.99087298708	0.0999802271835506	0.20003896066919
23407.75	100	184	1	48	1	2	0	2	2	0	1	22.5	157.5	1.55976910191367	2.43775659701394	0.2	0	0	0	206.190899026114	206.290889005177	0.0999899790622294	0.200026039034128
23482.75	100	185	1	49	1	2	0	2	2	0	1	112.5	67.5	-1.45942606653832	2.84520144068535	0.2	0	0	0	206.49090602342	206.590888688341	0.0999826649203897	0.20001701824367
23557.75	100	186	1	50	1	2	0	2	2	0	2	67.5	22.5	-2.43598145955837	3.06950783223129	0.2	0	0	0	206.790921797976	206.890897392295	0.0999755943194032	0.200033109635115
23632.75	100	187	1	51	1	2	0	2	2	0	2	157.5	112.5	-0.156248913782313	2.42834202236339	0.2	0	0	0	207.090890760999	207.190908046905	0.100017285905778	0.199993368703872
23707.75	100	188	1	52	1	2	0	2	2	0	1	112.5	67.5	-1.77315735665882	0.397564984509436	0.2	0	0	0	207.390929453541	207.49091089936	0.0999814458191395	0.200021406635642
23782.75	100	189	1	53	1	2	0	2	2	0	1	22.5	157.5	2.85424741416382	1.95671023355249	0.2	0	0	0	207.690939864144	207.790923260618	0.099983396474272	0.200028964783996
23857.75	100	190	1	54	1	2	0	2	2	0	1	112.5	67.5	1.30845357493708	-1.10005825953635	0.2	0	0	0	207.990928819403	208.090928795282	0.0999999758787453	0.200005558785051
23932.75	100	191	1	55	1	2	0	2	2	0	1	22.5	67.5	-0.248837006690127	-0.100053963631833	0.2	0	0	0	208.290958734695	208.390964074526	0.100005339831114	0.200029939413071
24007.75	100	192	1	56	1	2	0	2	2	3	1	22.5	67.5	2.60555595726908	1.77670199712382	0.2	0	0	0	208.59096548846	208.690943277441	0.0999777889810503	0.200001413933933
24082.75	100	193	1	57	1	2	0	2	2	3	2	67.5	112.5	-2.25647047011876	1.90806036556992	0.2	0	0	0	208.890956881922	208.9909380842	0.0999812022782862	0.200013604480773
24157.75	100	194	1	58	1	2	0	2	2	3	1	112.5	67.5	-2.99005909874525	-0.330341107234686	0.2	0	0	0	209.190972900484	209.290946788155	0.0999738876707852	0.200034816283733
24232.75	100	195	1	59	1	2	0	2	2	2	-1	45	0	0.182161334462683	0.677415489033091	0.2	0	0	0	209.490967219695	209.590973534156	0.100006314460188	0.200020431540906
24307.75	100	196	1	60	1	2	0	2	2	3	2	67.5	22.5	3.01573397333245	0.771631081155827	0.2	0	0	0	209.79099664744	209.890977605712	0.0999809582717717	0.20002311328426
24382.75	100	197	1	61	1	2	0	2	2	3	1	22.5	157.5	-1.10600867824703	-0.77974804058167	0.2	0	0	0	210.091004863847	210.190987772774	0.0999829089269042	0.200027258135378
24457.75	100	198	1	62	1	2	0	2	2	3	2	157.5	112.5	-0.0359865366672087	-0.891692635042431	0.2	0	0	0	210.390987480059	210.490971608087	0.0999841280281544	0.199999707285315
24532.75	100	199	1	63	1	2	0	2	2	3	2	157.5	22.5	-1.91047320575619	-0.342707712564882	0.2	0	0	0	210.690997403115	210.791009325534	0.100011922419071	0.200025795027614
24607.75	100	200	1	64	1	2	0	2	2	0	1	22.5	67.5	-0.455795283883236	-2.61636113749929	0.2	0	0	0	210.99102780642	211.090992916841	0.0999651104211807	0.200018480885774
24682.75	100	201	1	65	1	2	0	2	2	0	1	112.5	157.5	0.574486365739872	-2.57464134076349	0.2	0	0	0	211.29101700522	211.391022588592	0.100005583371967	0.200024088378996
24757.75	100	202	1	66	1	2	0	2	2	0	2	157.5	112.5	-3.11499100961119	3.05877991636541	0.2	1	0	0	211.591032536235	211.691012275405	0.0999797391705215	0.200009947642684
24832.75	100	203	1	67	1	2	0	2	2	0	1	112.5	67.5	-2.95533868077119	-1.98323583182561	0.2	0	0	0	211.891032950487	211.991012202576	0.099979252088815	0.20002067508176
24907.75	100	204	1	68	1	2	0	2	2	0	2	67.5	22.5	2.73243913400833	0.478331774242557	0.2	0	0	0	212.191038972698	212.291045531165	0.100006558466703	0.200026770122349
24982.75	100	205	1	69	1	2	0	2	2	0	2	67.5	112.5	2.54900154852331	-1.82416671048224	0.2	0	0	0	212.491091074888	212.591051796917	0.0999607220292091	0.200045543722808
25057.75	100	206	1	70	1	2	0	2	2	0	1	22.5	67.5	-1.52206813699978	-2.06596046075053	0.2	0	0	0	212.791097828187	212.891084638424	0.0999868102371693	0.200046031270176
25132.75	100	207	1	71	1	2	0	2	2	0	2	157.5	22.5	2.25012619689666	1.15892099337627	0.2	0	0	0	213.091110189445	213.191092123277	0.0999819338321686	0.200025551021099
25207.75	100	208	1	72	1	2	0	2	2	0	2	157.5	22.5	-0.05487000107864	1.70639592173426	0.2	0	0	0	213.39111596765	213.491098876577	0.0999829089269042	0.200023844372481
25282.75	100	209	1	73	1	2	0	2	2	0	2	157.5	112.5	-2.77922079808746	1.33405124734964	0.2	0	0	0	213.691103704274	213.791086125653	0.0999824213795364	0.20000482769683
25357.75	100	210	1	74	1	2	0	2	2	0	1	22.5	157.5	-2.65319575815537	-1.30128297225794	0.2	0	0	0	213.991111920681	214.091093610507	0.099981689825654	0.200025795027614
25432.75	100	211	1	75	1	2	0	2	2	0	1	22.5	67.5	-2.17740902906973	-2.64988565626994	0.2	0	0	0	214.291118430439	214.391101582907	0.0999831524677575	0.200024819932878
25507.75	100	212	1	76	1	2	0	2	2	0	1	22.5	67.5	0.580265374311947	1.90835797865614	0.2	0	0	0	214.591125671286	214.691109799314	0.0999841280281544	0.200024088378996
25582.75	100	213	1	77	1	2	0	2	2	0	2	157.5	22.5	-2.49587561665336	-0.441335940199629	0.2	0	0	0	214.891120234504	214.991096804384	0.0999765698798001	0.200010435190052
25657.75	100	214	1	78	1	2	0	2	2	0	1	112.5	67.5	0.281586012756354	3.08459456198619	0.2	0	0	0	215.191119917668	215.291100388393	0.0999804707244039	0.20002311328426
25732.75	100	215	1	79	1	2	0	2	2	0	1	22.5	67.5	0.347183580483801	2.87126053283947	0.2	0	0	0	215.491127890069	215.591112018097	0.0999841280281544	0.200027501676232
25807.75	100	216	1	80	1	2	0	2	2	0	1	112.5	67.5	-0.0413979942123364	0.492915634162614	0.2	0	0	0	215.791139275767	215.891123403795	0.0999841280281544	0.200027257669717
25882.75	100	217	1	81	1	2	0	2	2	0	1	22.5	157.5	-1.75506810101633	-2.09428636852775	0.2	0	0	0	216.091148467734	216.191127475351	0.0999790076166391	0.200025063939393
25957.75	100	218	1	82	1	2	0	2	2	0	1	22.5	67.5	-2.04551195378724	2.9672846057841	0.2	0	0	0	216.391148881987	216.49113788642	0.0999890044331551	0.200021406635642
26032.75	100	219	1	83	1	2	0	2	2	0	2	67.5	112.5	-1.12032531608488	2.44017889880625	0.2	0	0	0	216.691158561502	216.791145858821	0.0999872973188758	0.20002067508176
26108	100	220	1	84	1	2	0	2	2	0	1	22.5	157.5	0.0684025251189806	-1.87300083147419	0.2	0	0	0	216.991168728098	217.091151881032	0.0999831529334188	0.200022869277745
26183	100	221	1	85	1	2	0	2	2	0	2	67.5	22.5	-0.952833035375721	-2.06391362994095	0.2	0	0	0	217.291174506303	217.39115839079	0.0999838844873011	0.200022625271231
26258	100	222	1	86	1	2	0	2	2	0	2	67.5	112.5	2.33659447461838	-1.27546608245126	0.2	0	0	0	217.591181260068	217.691165631637	0.0999843715690076	0.200022869277745
26333	100	223	1	87	1	2	0	2	2	0	1	112.5	157.5	2.94318651509592	2.09640585832635	0.2	0	0	0	217.891193864867	217.991211394779	0.100017529912293	0.200028233230114
26408	100	224	1	88	1	2	0	2	2	0	2	157.5	112.5	-1.70150466980238	-1.34949536190824	0.2	0	0	0	218.19122792501	218.291185721755	0.0999577967450023	0.200016530230641
26483	100	225	1	89	1	2	0	2	2	0	2	67.5	22.5	2.61136959177437	2.78615291240033	0.2	0	0	0	218.491209566128	218.591191255953	0.099981689825654	0.200023844372481
26558	100	226	1	90	1	2	0	2	2	0	2	157.5	22.5	0.963787900179831	-2.28501115005844	0.2	0	0	0	218.791218514089	218.891198497266	0.099979983177036	0.200027258135378
26633	100	227	1	91	1	2	0	2	2	0	2	67.5	22.5	0.234109054763938	1.84858333096172	0.2	0	0	0	219.091222585645	219.191207445227	0.0999848595820367	0.200024088378996
26708	100	228	1	92	1	2	0	2	2	3	2	67.5	22.5	-0.884085491596247	-0.215870615025346	0.2	1	0	0	219.391236653551	219.491214686073	0.0999780325219035	0.20002920832485
26783	100	229	1	93	1	2	0	2	2	3	1	22.5	157.5	3.05804619831023	-0.690334910440251	0.2	0	0	0	219.691266325302	219.791249721777	0.099983396474272	0.200051639229059
26858	100	230	1	94	1	2	0	2	2	3	2	67.5	112.5	1.52232088781663	-1.03048754680412	0.2	0	0	0	219.991270396858	220.091256231535	0.0999858346767724	0.20002067508176
26933	100	231	1	95	1	2	0	2	2	2	-1	135	0	1.63398000083117	2.21690954566413	0.2	0	0	0	220.291286414955	220.391264203936	0.0999777889810503	0.200030183419585
27008	100	232	1	96	1	2	0	2	2	3	1	22.5	67.5	0.0129080637557544	1.27089771246789	0.2	0	0	0	220.591265374329	220.691246576607	0.0999812022782862	0.20000117039308
27083	100	233	1	97	1	2	0	2	2	3	2	157.5	112.5	0.072851158285109	-3.10236638733462	0.2	0	0	0	220.891278466675	220.991256012116	0.099977545440197	0.200031890068203
27158	100	234	1	98	1	2	0	2	2	3	1	112.5	67.5	-1.1342155285435	0.38685675856708	0.2	0	0	0	221.191282050684	221.291263740975	0.0999816902913153	0.200026038568467
27233	100	235	1	99	1	2	0	2	2	3	1	112.5	157.5	-0.718607368412516	2.55610804286604	0.2	0	0	0	221.491324644536	221.591294631362	0.0999699868261814	0.20006090356037
27308	100	236	1	100	1	2	0	2	2	0	1	22.5	67.5	1.14696893922211	-1.52500512182786	0.2	0	0	0	221.791308235843	221.891287000384	0.0999787645414472	0.200013604480773
27383	100	237	1	101	1	2	0	2	2	0	1	22.5	67.5	1.66179286470216	-2.77481463252367	0.2	0	0	0	222.091306212358	222.191283757333	0.0999775449745357	0.200019211973995
27458	100	238	1	102	1	2	0	2	2	0	2	157.5	22.5	-2.37871823103019	2.28729616098908	0.2	0	0	0	222.391306627076	222.49129587505	0.0999892479740083	0.200022869743407
27533	100	239	1	103	1	2	0	2	2	0	1	112.5	67.5	-2.02500117004997	2.95267221565121	0.2	0	0	0	222.691318256781	222.791297264397	0.0999790076166391	0.200022381730378
27608	100	240	1	104	1	2	0	2	2	0	2	157.5	112.5	-2.36420607504419	1.65044777801593	0.2	0	0	0	222.99133988237	223.091312307399	0.0999724250286818	0.20004261797294
27683	100	241	1	105	1	2	0	2	2	0	1	22.5	67.5	1.74516603550626	1.89766850381633	0.2	0	0	0	223.291339565534	223.39132125536	0.099981689825654	0.200027258135378
27758	100	242	1	106	1	2	0	2	2	0	2	67.5	22.5	1.67050820409899	-2.64271484085151	0.2	0	0	0	223.591371187475	223.691340199672	0.0999690121971071	0.20004993211478
27833	100	243	1	107	1	2	0	2	2	0	1	22.5	67.5	-0.355869986851159	-0.3157550439559	0.2	0	0	0	223.891379891429	223.991361825261	0.0999819338321686	0.200039691757411
27908	100	244	1	108	1	2	0	2	2	0	2	67.5	112.5	-2.13573718971002	1.70095923575345	0.2	0	0	0	224.191375186201	224.291366140824	0.0999909546226263	0.20001336093992
27983	100	245	1	109	1	2	0	2	2	0	1	112.5	157.5	2.72304338497721	0.146785665159646	0.2	0	0	0	224.491388766095	224.591368018184	0.099979252088815	0.200022625271231
28058	100	246	1	110	1	2	0	2	2	0	2	67.5	22.5	0.252290788800204	2.51310468841345	0.2	0	0	0	224.791395275854	224.891380866989	0.0999855911359191	0.200027257669717
28133	100	247	1	111	1	2	0	2	2	0	1	22.5	157.5	2.45388101238615	-1.95868009087909	0.2	0	0	0	225.091393252369	225.191393471789	0.100000219419599	0.200012385379523
28208	100	248	1	112	1	2	0	2	2	0	1	22.5	157.5	-1.09890560596708	0.731017457472849	0.2	0	0	0	225.391406345181	225.491376819555	0.0999704743735492	0.200012873392552
28283	100	249	1	113	1	2	0	2	2	3	2	67.5	112.5	-0.220668055778756	1.22841626747327	0.2	0	0	0	225.691397494636	225.791401127353	0.100003632716835	0.20002067508176
28358	100	250	1	114	1	2	0	2	2	3	2	67.5	22.5	1.3731665469803	-1.32831364649168	0.2	0	0	0	225.991436187178	226.091418608557	0.0999824213795364	0.200035059824586
28433	100	251	1	115	1	2	0	2	2	3	2	157.5	112.5	-0.420475783718546	2.76748549020385	0.2	0	0	0	226.29144635424	226.39142877562	0.0999824213795364	0.200027745682746
28508	100	252	1	116	1	2	0	2	2	1	-1	0	135	-2.76994107464939	-0.588509468541597	0.2	0	0	0	226.591436041053	226.69143382227	0.0999977812170982	0.200007265433669
28583	100	253	1	117	1	2	0	2	2	3	1	112.5	67.5	0.688079125312835	1.65383047248066	0.2	0	0	0	226.891460104845	226.99144447688	0.0999843720346689	0.200026282574981
28658	100	254	1	118	1	2	0	2	2	3	1	22.5	67.5	-2.8869368294433	-0.663014612914789	0.2	0	0	0	227.191469052806	227.29145123018	0.0999821773730218	0.200024575926363
28733	100	255	1	119	1	2	0	2	2	3	1	112.5	157.5	1.13523073657347	-2.79494953523351	0.2	0	0	0	227.491473124363	227.591456764843	0.0999836404807866	0.20002189418301
28808	100	256	1	120	1	2	0	2	2	3	1	22.5	157.5	-0.00133185637247335	2.18363114706255	0.2	0	0	0	227.791486217175	227.891463274602	0.0999770574271679	0.200029452331364
28883	100	257	1	121	1	2	0	2	2	0	2	67.5	112.5	1.06287740656912	-2.68069579241924	0.2	0	0	0	228.091486387886	228.191477342509	0.0999909546226263	0.20002311328426
28958	100	258	1	122	1	2	0	2	2	0	2	157.5	22.5	-1.8848483303809	1.28996882333983	0.2	0	0	0	228.391479000449	228.491461177822	0.0999821773730218	0.200001657940447
29033	100	259	1	123	1	2	0	2	2	0	1	112.5	67.5	-1.79803243924496	2.91125415415477	0.2	0	0	0	228.691485266201	228.791466956027	0.099981689825654	0.200024088378996
29108	100	260	1	124	1	2	0	2	2	0	2	67.5	112.5	-0.775623230472291	-1.2300848203857	0.2	0	0	0	228.991493482608	229.091474197339	0.0999807147309184	0.200026526581496
29183	100	261	1	125	1	2	0	2	2	0	1	112.5	67.5	3.01796175669471	2.20201452810505	0.2	0	0	0	229.291500723921	229.391483144835	0.0999824209138751	0.200026526581496
29258	100	262	1	126	1	2	0	2	2	0	1	22.5	157.5	1.21834136740319	1.12119958874334	0.2	0	0	0	229.591533320956	229.69146917481	0.0999358538538218	0.200050176121294
29333	100	263	1	127	1	2	0	2	2	0	1	112.5	157.5	-1.99844344398448	2.38307631202732	0.2	0	0	0	229.891537392512	229.991497871	0.0999604784883559	0.20006821770221
29408	100	264	1	128	1	2	0	2	2	0	2	157.5	22.5	-1.41288539481283	-2.73106052477257	0.2	0	0	0	230.191553654615	230.291532662697	0.0999790080823004	0.200055783614516
29483	100	265	1	129	1	2	0	2	2	0	2	157.5	22.5	0.416825395892096	-0.576022594189646	0.2	0	0	0	230.491556995083	230.591515522916	0.0999585278332233	0.20002433238551
29558	100	266	1	130	1	2	0	2	2	0	2	157.5	22.5	2.89657250111673	-2.2748671334029	0.2	0	0	0	230.791572038084	230.891548120417	0.0999760823324323	0.200056515168399
29633	100	267	1	131	1	2	0	2	2	0	1	112.5	157.5	0.657073854992646	-1.1363267156551	0.2	0	0	0	231.091572696343	231.191558043472	0.0999853471294045	0.200024575926363
29708	100	268	1	132	1	2	0	2	2	0	2	67.5	112.5	-1.39096360235652	-1.60158336216149	0.2	0	0	0	231.391578962095	231.491566015873	0.0999870537780225	0.200020918622613
29783	100	269	1	133	1	2	0	2	2	0	1	112.5	157.5	2.90700918032651	0.122603175809246	0.2	0	0	0	231.691570112016	231.791577645577	0.100007533561438	0.200004096142948
29858	100	270	1	134	1	2	0	2	2	0	2	157.5	112.5	-1.99899096153821	2.24913612372907	0.2	0	0	0	231.991574427113	232.091554654296	0.0999802271835506	0.199996781535447
29933	100	271	1	135	1	2	0	2	2	0	2	157.5	22.5	-1.90851576301744	-0.238158568526921	0.2	0	0	0	232.291606781073	232.39158969	0.0999829089269042	0.200052126776427
30008	100	272	1	136	1	2	0	2	2	0	1	112.5	67.5	-1.60439728642362	-1.68752000383019	0.2	0	0	0	232.591614753474	232.691571331117	0.0999565776437521	0.200025063473731
30083	100	273	1	137	1	2	0	2	2	0	2	157.5	112.5	1.48062332918862	3.06885319162186	0.2	0	0	0	232.89159517549	232.991575646214	0.0999804707244039	0.200023844372481
30158	100	274	1	138	1	2	0	2	2	0	2	67.5	112.5	1.9688613308496	2.17235672669189	0.2	0	0	0	233.191607536748	233.291585813276	0.0999782765284181	0.200031890533864
30233	100	275	1	139	1	2	0	2	2	0	1	22.5	67.5	-0.527145422995966	0.167463242438235	0.2	0	0	0	233.491609657649	233.591594517231	0.0999848595820367	0.200023844372481
30308	100	276	1	140	1	2	0	2	2	3	1	22.5	157.5	2.78482561334867	2.28104230385141	0.2	0	0	0	233.791623482015	233.891604684293	0.0999812022782862	0.200028964783996
30383	100	277	1	141	1	2	0	2	2	3	2	67.5	22.5	-2.83548972648872	0.540678804370267	0.2	0	0	0	234.091654859949	234.191638987977	0.0999841280281544	0.200050175655633
30458	100	278	1	142	1	2	0	2	2	3	2	157.5	22.5	2.10089278511503	-0.614057177311915	0.2	0	0	0	234.391667221207	234.491645985283	0.0999787640757859	0.200028233230114
30533	100	279	1	143	1	2	0	2	2	3	2	67.5	112.5	2.81386450989019	0.177130712910751	0.2	0	0	0	234.691672024317	234.791655177251	0.0999831529334188	0.200026039034128
32158	100	280	2	0	1	1	90	2	2	3	1	112.5	67.5	3.13007571294703	1.88815867416506	0.2	0	0	0	241.191851346288	241.291815969627	0.0999646233394742	-1
32233	100	281	2	1	1	1	90	2	2	3	2	157.5	112.5	-2.92250695450214	2.59085616579044	0.2	0	0	0	241.491847372148	241.591813214589	0.0999658424407244	0.200031402520835
32308	100	282	2	2	1	1	90	2	2	3	1	22.5	157.5	2.41462710097718	1.92290225835531	0.2	0	0	0	241.791839009617	241.891823868733	0.0999848591163754	0.200025795027614
32383	100	283	2	3	1	1	90	2	2	3	1	112.5	157.5	-2.82623035452091	2.82769605800628	0.2	0	0	0	242.091843812726	242.191827940755	0.0999841280281544	0.200019943993539
32458	100	284	2	4	1	1	90	2	2	0	1	22.5	157.5	-1.81533065359693	-0.969772215724558	0.2	0	0	0	242.391853979323	242.491838594899	0.0999846155755222	0.200026038568467
32533	100	285	2	5	1	1	90	2	2	0	1	22.5	67.5	-1.80395187496509	-2.0228479862236	0.2	0	0	0	242.691861220635	242.79184461711	0.099983396474272	0.200022625736892
32608	100	286	2	6	1	1	90	2	2	0	1	112.5	67.5	0.400180604651912	1.60340145688908	0.2	0	0	0	242.991874312982	243.091880871449	0.100006558466703	0.200029695872217
32683	100	287	2	7	1	1	90	2	2	0	1	112.5	157.5	0.493030946240911	-0.265409068314255	0.2	0	0	0	243.29187765345	243.391867144965	0.0999894915148616	0.199996782001108
32758	100	288	2	8	1	1	90	2	2	0	2	157.5	112.5	2.25278963963876	2.34855077210657	0.2	0	0	0	243.59192097839	243.691893890966	0.0999729125760496	0.200053833425045
32833	100	289	2	9	1	1	90	2	2	0	2	157.5	112.5	2.73013213803776	-0.504788213663825	0.2	0	0	0	243.891923343297	243.991909177974	0.0999858346767724	0.200029452331364
32908	100	290	2	10	1	1	90	2	2	0	1	112.5	67.5	-0.12618503454934	1.37231505335563	0.2	0	0	0	244.191924976651	244.291905203834	0.0999802271835506	0.200015798676759
32983	100	291	2	11	1	1	90	2	2	0	2	67.5	112.5	0.00789256099904856	0.918908832474258	0.2	0	0	0	244.49190881243	244.591892452445	0.0999836400151253	0.20000360859558
33058	100	292	2	12	1	1	90	2	2	0	2	157.5	22.5	-2.01121448796112	1.3618700342455	0.2	0	0	0	244.791921173222	244.891898718663	0.099977545440197	0.200028720777482
33133	100	293	2	13	1	1	90	2	2	0	2	157.5	112.5	-2.31480961426442	-1.27996121873377	0.2	0	0	0	245.091928902082	245.191907666158	0.0999787640757859	0.200030183419585
33208	100	294	2	14	1	1	90	2	2	0	1	22.5	67.5	-1.03667594199676	-2.97884059670337	0.2	0	0	0	245.391965887975	245.491946846712	0.099980958737433	0.200058221817017
33283	100	295	2	15	1	1	90	2	2	0	1	112.5	157.5	3.02585269389301	2.12241729602856	0.2	0	0	0	245.69197264174	245.791957988404	0.0999853466637433	0.200025795027614
33358	100	296	2	16	1	1	90	2	2	0	2	67.5	22.5	-0.291864060581978	-0.963677028974075	0.2	0	0	0	245.991980370134	246.091964498162	0.0999841280281544	0.200022381730378
33433	100	297	2	17	1	1	90	2	2	0	1	112.5	157.5	-2.48208398690337	-0.462770694272296	0.2	0	0	0	246.291988830548	246.391971251927	0.0999824213795364	0.20002433238551
33508	100	298	2	18	1	1	90	2	2	0	1	22.5	157.5	0.983618314862628	-2.93436242951965	0.2	0	0	0	246.59198022401	246.691959963646	0.0999797396361828	0.200008972082287
33583	100	299	2	19	1	1	90	2	2	0	2	157.5	22.5	-1.81384372625086	1.84787633197223	0.2	0	0	0	246.891979907174	246.991961352993	0.0999814458191395	0.200019943527877
33658	100	300	2	20	1	1	90	2	2	0	1	112.5	67.5	0.570519247020813	-0.665236753930109	0.2	0	0	0	247.19198105298	247.291963961907	0.0999829089269042	0.200019699987024
33733	100	301	2	21	1	1	90	2	2	0	2	67.5	22.5	0.0339703206241242	-3.00736707846868	0.2	0	0	0	247.491993170232	247.591973641422	0.0999804711900651	0.20002920832485
33808	100	302	2	22	1	1	90	2	2	0	2	157.5	22.5	1.60659275021531	-1.9841447655047	0.2	1	0	0	247.791998704895	247.891982345376	0.0999836404807866	0.200025063473731
33883	100	303	2	23	1	1	90	2	2	0	1	22.5	67.5	-1.8381562436427	0.488960450622652	0.2	0	0	0	248.092041054741	248.192030058708	0.0999890039674938	0.200058709364384
33958	100	304	2	24	1	1	90	2	2	0	1	112.5	67.5	0.491847981737458	-2.24593702636256	0.2	0	0	0	248.392052196432	248.492019989528	0.0999677930958569	0.200022137723863
34033	100	305	2	25	1	1	90	2	2	0	2	157.5	112.5	1.62319976866345	2.85595293997015	0.2	0	0	0	248.692064070143	248.792038445827	0.0999743756838143	0.200044080615044
34108	100	306	2	26	1	1	90	2	2	0	2	157.5	22.5	0.809366808350048	-0.368694532063264	0.2	0	0	0	248.992045955267	249.092027157545	0.0999812022782862	0.200007509440184
34183	100	307	2	27	1	1	90	2	2	0	1	112.5	157.5	-1.88203801224732	1.65666885868614	0.2	0	0	0	249.292050270364	249.392038299702	0.0999880293384194	0.200023112818599
34258	100	308	2	28	1	1	90	2	2	3	2	157.5	22.5	-1.50599419990588	1.0556694299764	0.2	0	0	0	249.592060924973	249.6920438339	0.0999829089269042	0.200022625271231
34333	100	309	2	29	1	1	90	2	2	3	1	112.5	157.5	-2.08363984101031	-2.13906135773548	0.2	0	0	0	249.892092547379	249.992060827557	0.0999682801775634	0.200048713479191
34408	100	310	2	30	1	1	90	2	2	3	1	22.5	67.5	-3.07118240408672	-1.73287809121787	0.2	0	0	0	250.19210344553	250.29208294116	0.0999794956296682	0.20004261797294
34483	100	311	2	31	1	1	90	2	2	1	-1	90	135	0.497476265977181	-2.16430455426275	0.2	0	0	0	250.492104591336	250.592087500263	0.0999829089269042	0.200021650176495
34558	100	312	2	32	1	1	90	2	2	3	2	157.5	112.5	-0.739085940674153	2.47550712492233	0.2	0	0	0	250.792099154554	250.892097179312	0.0999980247579515	0.200011654291302
34633	100	313	2	33	1	1	90	2	2	3	2	67.5	112.5	-1.05532138138127	0.185887230228488	0.2	0	0	0	251.092108589597	251.192109784577	0.100001194979995	0.200011410284787
34708	100	314	2	34	1	1	90	2	2	3	1	22.5	157.5	-0.0282381240875207	-0.0134471993239855	0.2	0	0	0	251.392137042247	251.492119951174	0.0999829089269042	0.200027257669717
34783	100	315	2	35	1	1	90	2	2	3	1	112.5	67.5	1.56607379727089	1.69394848444877	0.2	0	0	0	251.692141845357	251.792122560088	0.0999807147309184	0.20002189418301
34858	100	316	2	36	1	1	90	2	2	0	2	67.5	112.5	-2.58409496008797	-2.77136783897198	0.2	0	0	0	251.992148599122	252.092125412542	0.0999768134206533	0.200026039034128
34933	100	317	2	37	1	1	90	2	2	0	1	112.5	67.5	2.18541730162231	1.33202107302148	0.2	0	0	0	252.292154377326	252.392144356854	0.0999899795278907	0.200028964783996
35008	100	318	2	38	1	1	90	2	2	0	1	22.5	157.5	2.34286893337478	-2.7151834982874	0.2	0	0	0	252.592167226132	252.692150866613	0.0999836404807866	0.200022869277745
35083	100	319	2	39	1	1	90	2	2	0	1	22.5	67.5	-1.16118023307328	0.415193788610833	0.2	0	0	0	252.892156912945	252.992136408575	0.0999794956296682	0.200006046332419
35158	100	320	2	40	1	1	90	2	2	0	2	157.5	22.5	0.431697344058055	2.56725604614797	0.2	0	0	0	253.192163178697	253.292143649422	0.0999804707244039	0.200026770122349
35233	100	321	2	41	1	1	90	2	2	0	2	157.5	112.5	-0.591885775535115	-3.0996483777568	0.2	0	0	0	253.492165543605	253.592161130626	0.0999955870211124	0.20002189418301
35308	100	322	2	42	1	1	90	2	2	0	1	22.5	67.5	0.581368631249896	-1.58989210233722	0.2	0	0	0	253.792174247559	253.89215788804	0.0999836404807866	0.200013116933405
35383	100	323	2	43	1	1	90	2	2	0	2	67.5	112.5	-2.15357298584291	-0.789158504836324	0.2	0	0	0	254.092167835683	254.192167323548	0.0999994878657162	0.200009947642684
35458	100	324	2	44	1	1	90	2	2	0	2	67.5	22.5	-1.64983055546006	-1.49698998270074	0.2	0	0	0	254.392192387022	254.492174808402	0.0999824213795364	0.200025063473731
35533	100	325	2	45	1	1	90	2	2	0	1	112.5	67.5	2.64667755436167	-0.237057866682568	0.2	0	0	0	254.692200115882	254.792180343065	0.0999802271835506	0.200025307480246
35608	100	326	2	46	1	1	90	2	2	0	1	112.5	67.5	-2.54016377243221	1.13057198735754	0.2	0	0	0	254.992204187438	255.092214890756	0.100010703317821	0.200023844372481
35683	100	327	2	47	1	1	90	2	2	0	2	67.5	112.5	-2.40696590268538	-2.63046819430592	0.2	1	0	0	255.292234834284	255.392223107163	0.0999882728792727	0.200019943527877
35758	100	328	2	48	1	1	90	2	2	0	2	67.5	112.5	-2.62549200046537	-1.48918436810058	0.2	0	0	0	255.592245244887	255.692219620571	0.0999743756838143	0.200022137723863
35833	100	329	2	49	1	1	90	2	2	0	2	157.5	112.5	-0.644283084070782	-2.77083568883438	0.2	0	0	0	255.892230543308	255.992213696241	0.0999831529334188	0.20001092273742
35908	100	330	2	50	1	1	90	2	2	0	1	22.5	157.5	1.87649849660407	-1.87589187397633	0.2	0	0	0	256.19224266056	256.292222400196	0.0999797396361828	0.200028964318335
35983	100	331	2	51	1	1	90	2	2	0	1	112.5	67.5	-1.83791826999109	2.54673435085906	0.2	0	0	0	256.492245757021	256.592231348157	0.0999855911359191	0.200023356825113
36058	100	332	2	52	1	1	90	2	2	0	2	67.5	22.5	-1.62405992619409	-2.91355197742494	0.2	0	0	0	256.792278598063	256.89226150699	0.0999829089269042	0.200047249905765
36133	100	333	2	53	1	1	90	2	2	3	2	67.5	112.5	0.0463086155592847	1.71632825407479	0.2	0	0	0	257.092295104172	257.192268260755	0.0999731565825641	0.200033597182482
36208	100	334	2	54	1	1	90	2	2	3	1	112.5	157.5	0.49168463725138	1.07353582566	0.2	0	0	0	257.392302101478	257.492277696263	0.0999755947850645	0.200033840723336
36283	100	335	2	55	1	1	90	2	2	3	1	22.5	157.5	-0.722135318675161	0.389886795567447	0.2	0	0	0	257.692297639791	257.792276647873	0.0999790080823004	0.200019943527877
36358	100	336	2	56	1	1	90	2	2	2	-1	135	90	2.65972659850777	-0.772495342100342	0.2	0	0	0	257.992289764807	258.092299980577	0.100010215770453	0.200013116933405
36433	100	337	2	57	1	1	90	2	2	3	2	157.5	112.5	-1.75350807161836	2.52511519266716	0.2	0	0	0	258.292319924105	258.392302589025	0.0999826649203897	0.200019943527877
36508.25	100	338	2	58	1	1	90	2	2	3	1	112.5	67.5	2.24942198581201	0.0460631106988121	0.2	0	0	0	258.592330334708	258.692287887447	0.0999575527384877	0.200027745682746
36583.25	100	339	2	59	1	1	90	2	2	3	1	22.5	67.5	0.904560471313848	-0.0151859551952445	0.2	0	0	0	258.892314170022	258.992298785597	0.0999846155755222	0.200026282574981
36658.25	100	340	2	60	1	1	90	2	2	3	2	67.5	22.5	0.644349889933054	2.65238244443399	0.2	0	0	0	259.192321654875	259.292302369606	0.0999807147309184	0.200022869277745
36733.25	100	341	2	61	1	1	90	2	2	0	2	67.5	22.5	-0.890321879019814	1.21460818882383	0.2	0	0	0	259.492329627741	259.592318631709	0.0999890039674938	0.200027258135378
36808.25	100	342	2	62	1	1	90	2	2	0	1	22.5	67.5	3.09261809537168	0.936299894262989	0.2	0	0	0	259.792359787039	259.892329773866	0.0999699868261814	0.200041155330837
36883.25	100	343	2	63	1	1	90	2	2	0	1	22.5	157.5	2.45912170840079	2.14312982200741	0.2	0	0	0	260.092349717394	260.192331163678	0.0999814462848008	0.200019943527877
36958.25	100	344	2	64	1	1	90	2	2	0	2	67.5	112.5	-1.80274303730745	1.65839540982894	0.2	0	0	0	260.39235183876	260.492339623626	0.0999877848662436	0.20002067508176
37033.25	100	345	2	65	1	1	90	2	2	0	2	157.5	112.5	0.98686786883378	-0.941048240808961	0.2	0	0	0	260.692361517809	260.792345645837	0.0999841280281544	0.20002189418301
37108.25	100	346	2	66	1	1	90	2	2	0	1	112.5	157.5	-1.21503751456871	2.13509808763795	0.2	0	0	0	260.992373879068	261.092385069933	0.100011190865189	0.200028233230114
37183.25	100	347	2	67	1	1	90	2	2	0	1	22.5	157.5	0.63178101396792	0.0767331762273358	0.2	0	0	0	261.292403794359	261.392370124348	0.0999663299880922	0.200018724426627
37258.25	100	348	2	68	1	1	90	2	2	0	1	112.5	67.5	0.118780725690183	-0.70805746094402	0.2	0	0	0	261.592410548124	261.692393700592	0.0999831524677575	0.200040423776954
37333.25	100	349	2	69	1	1	90	2	2	0	1	22.5	157.5	-1.88115677425025	1.84830532852285	0.2	0	0	0	261.892418520525	261.992382899858	0.0999643793329597	0.200024819932878
37408.25	100	350	2	70	1	1	90	2	2	0	2	67.5	22.5	-0.522683036344545	0.785535171854749	0.2	0	0	0	262.192427468486	262.292406964116	0.0999794956296682	0.200044568628073
37483.25	100	351	2	71	1	1	90	2	2	0	1	22.5	157.5	-1.4803299270847	2.84025036313005	0.2	0	0	0	262.492418374401	262.592400308233	0.0999819338321686	0.200011410284787
37558.25	100	352	2	72	1	1	90	2	2	0	1	112.5	67.5	2.98748300332665	2.56209030779068	0.2	0	0	0	262.792440975551	262.89242632268	0.0999853471294045	0.200040667317808
37633.25	100	353	2	73	1	1	90	2	2	0	2	157.5	22.5	1.15128330381414	2.92092561935628	0.2	0	0	0	263.092455774546	263.192430637777	0.0999748632311821	0.200029451865703
37708.25	100	354	2	74	1	1	90	2	2	0	2	67.5	22.5	-0.708019865552355	-2.97332364960928	0.2	0	0	0	263.39244058542	263.492417642847	0.0999770574271679	0.200009947642684
37783.25	100	355	2	75	1	1	90	2	2	0	1	22.5	157.5	-0.594066536542248	-0.200610867393973	0.2	0	0	0	263.692443437874	263.792462186888	0.100018749013543	0.200025795027614
37858.25	100	356	2	76	1	1	90	2	2	0	2	157.5	22.5	-1.53482025408848	-0.716422093334592	0.2	0	0	0	263.992457505781	264.092434563208	0.0999770574271679	0.199995318893343
37933.25	100	357	2	77	1	1	90	2	2	3	2	157.5	22.5	1.10834781161499	0.310446677581551	0.2	0	0	0	264.292461577337	264.392442292068	0.0999807147309184	0.200027014128864
38008.25	100	358	2	78	1	1	90	2	2	3	2	67.5	22.5	-1.95687127062801	0.977658944654163	0.2	0	0	0	264.592495881487	264.692473670468	0.0999777889810503	0.20005358941853
38083.25	100	359	2	79	1	1	90	2	2	3	1	112.5	67.5	-0.693371016052484	-0.78934343681486	0.2	0	0	0	264.892498002388	264.992466770578	0.0999687681905925	0.200024331919849
38158.25	100	360	2	80	1	1	90	2	2	1	-1	90	45	-0.49027690159982	1.5437069874574	0.2	0	0	0	265.192495734897	265.292463040445	0.0999673055484891	0.200028964318335
38233.25	100	361	2	81	1	1	90	2	2	3	1	112.5	157.5	-0.0437243432290835	1.46722112864684	0.2	1	0.291962742805481	1	265.492492979858	265.59248369094	0.099990711081773	0.200029939413071
38308.25	100	362	2	82	1	1	90	2	2	3	1	22.5	157.5	1.73379607472514	1.6936534739532	0.2	0	0	0	265.79250022117	265.892505804542	0.100005583371967	0.200016530230641
38383.25	100	363	2	83	1	1	90	2	2	3	1	22.5	67.5	-2.82529179450326	0.0958740471307862	0.2	0	0	0	266.092519896571	266.192512801848	0.0999929052777588	0.200014092028141
38458.25	100	364	2	84	1	1	90	2	2	3	2	157.5	112.5	-1.20532379408515	-1.00161550033836	0.2	0	0	0	266.392539571971	266.492521505803	0.0999819338321686	0.200026770122349
38533.25	100	365	2	85	1	1	90	2	2	0	2	157.5	22.5	-0.678601264873846	-2.37767982328832	0.2	0	0	0	266.692533891182	266.792523626704	0.0999897355213761	0.200012385379523
38608.25	100	366	2	86	1	1	90	2	2	0	1	22.5	67.5	-0.414571419474061	0.16728733485099	0.2	0	0	0	266.992557711434	267.092542327009	0.0999846155755222	0.20003408472985
38683.25	100	367	2	87	1	1	90	2	2	0	2	67.5	22.5	0.57649069975657	1.38133156916973	0.2	0	0	0	267.292563733645	267.392534208484	0.0999704748392105	0.200021406635642
38758.25	100	368	2	88	1	1	90	2	2	0	2	157.5	22.5	-2.64961513940402	-1.85943098635319	0.2	0	0	0	267.592552201357	267.692533647642	0.0999814462848008	0.200017992872745
38833.25	100	369	2	89	1	1	90	2	2	0	2	67.5	112.5	2.54818938129843	-2.05168130083944	0.2	0	0	0	267.892555785365	267.9925401574	0.0999843720346689	0.200022137723863
38908.25	100	370	2	90	1	1	90	2	2	0	1	112.5	157.5	-1.06325469169921	-2.71841702805427	0.2	0	0	0	268.192570584826	268.292547885794	0.0999773009680212	0.2000304274261
38983.25	100	371	2	91	1	1	90	2	2	0	2	157.5	112.5	1.56341562096257	-0.100884710272727	0.2	0	0	0	268.492574412376	268.592561953701	0.0999875413253903	0.200026526581496
39058.25	100	372	2	92	1	1	90	2	2	0	2	157.5	22.5	0.0305764195787908	0.549749264536077	0.2	0	0	0	268.792604815681	268.8925862615	0.0999814458191395	0.200042861979455
39133.25	100	373	2	93	1	1	90	2	2	0	1	22.5	157.5	-0.064701940747121	1.85557100715191	0.2	0	0	0	269.092614738736	269.192576679867	0.0999619411304593	0.200028477236629
39208.25	100	374	2	94	1	1	90	2	2	0	2	157.5	112.5	-2.554092327124	0.22312088326373	0.2	0	0	0	269.392602718901	269.492583921179	0.0999812022782862	0.200026039034128
39283.25	100	375	2	95	1	1	90	2	2	0	1	22.5	67.5	-1.30548305883103	2.30752342143151	0.2	0	0	0	269.692619468551	269.792607984971	0.099988516420126	0.200035547371954
39358.25	100	376	2	96	1	1	90	2	2	0	1	22.5	67.5	1.76127484587311	-2.93954642184461	0.2	0	0	0	269.992629391607	270.092613519635	0.0999841280281544	0.200021406635642
39433.25	100	377	2	97	1	1	90	2	2	0	1	22.5	157.5	2.69639309004683	-1.46218475289118	0.2	0	0	0	270.292632975616	270.392611008137	0.0999780325219035	0.20001945598051
39508.25	100	378	2	98	1	1	90	2	2	0	1	112.5	157.5	2.81223990417142	1.80528590754877	0.2	0	0	0	270.592635584529	270.692618005443	0.0999824209138751	0.200024576392025
39583.25	100	379	2	99	1	1	90	2	2	0	2	67.5	112.5	-0.531809874945891	-1.90015959314958	0.2	0	0	0	270.89266428072	270.99264377635	0.0999794956296682	0.200046275276691
39658.25	100	380	2	100	1	1	90	2	2	0	1	112.5	157.5	-2.22230806937785	-1.02058416731144	0.2	0	0	0	271.192671034019	271.292656625155	0.0999855911359191	0.200027257669717
39733.25	100	381	2	101	1	1	90	2	2	0	2	67.5	22.5	-0.879790346369845	-1.56084024557791	0.2	0	0	0	271.492680713534	271.592645580415	0.0999648668803275	0.200024088378996
39808.25	100	382	2	102	1	1	90	2	2	0	2	67.5	112.5	-2.26217608138446	3.096706073795	0.2	0	0	0	271.792664792854	271.892646726221	0.0999819333665073	0.200019212439656
39883.25	100	383	2	103	1	1	90	2	2	0	1	22.5	67.5	-2.35321992568749	2.4038164600939	0.2	0	0	0	272.0926954397	272.192662257235	0.09996681753546	0.200048713479191
39958.25	100	384	2	104	1	1	90	2	2	0	2	157.5	112.5	2.74983363705865	-2.2944800928396	0.2	0	0	0	272.392701949459	272.492684370372	0.0999824209138751	0.200039692223072
40033.25	100	385	2	105	1	1	90	2	2	3	1	22.5	157.5	1.20615391426275	-0.593125425530449	0.2	0	0	0	272.692713822704	272.792696244083	0.0999824213795364	0.200029452331364
40108.25	100	386	2	106	1	1	90	2	2	3	1	112.5	157.5	-2.86649368135265	-1.49796283751632	0.2	0	0	0	272.992719844915	273.092701534741	0.099981689825654	0.200023600831628
40183.25	100	387	2	107	1	1	90	2	2	3	1	112.5	67.5	2.40999190656767	-1.70134557300503	0.2	0	0	0	273.292709044181	273.392692684662	0.0999836404807866	0.200007509440184
40258.25	100	388	2	108	1	1	90	2	2	2	-1	135	90	-0.665352280421369	1.27543489002183	0.2	0	0	0	273.592747492716	273.69271894265	0.0999714499339461	0.200054808054119
40333.25	100	389	2	109	1	1	90	2	2	3	2	157.5	112.5	-2.03165157381839	-2.55804661909642	0.2	0	0	0	273.892745956779	273.992725452408	0.0999794956296682	0.200027014128864
40408.25	100	390	2	110	1	1	90	2	2	3	2	157.5	22.5	0.996784649474385	2.55635349360695	0.2	0	0	0	274.19273735024	274.292722941376	0.0999855911359191	0.200011897832155
40483.25	100	391	2	111	1	1	90	2	2	3	2	67.5	22.5	-0.904933445525665	-1.60301422300097	0.2	0	0	0	274.49275995139	274.592730670236	0.0999707188457251	0.200037010014057
40558.25	100	392	2	112	1	1	90	2	2	3	1	22.5	67.5	-2.20815196840486	-2.12918666677754	0.2	0	0	0	274.792747688014	274.892725476995	0.0999777889810503	0.200017017778009
40633.25	100	393	2	113	1	1	90	2	2	0	2	157.5	112.5	2.09862420539749	-1.63116775146517	0.2	0	0	0	275.092755904421	275.192735643592	0.0999797391705215	0.2000304274261
40708.25	100	394	2	114	1	1	90	2	2	0	1	112.5	157.5	-2.00928961049373	-1.79873257542179	0.2	0	0	0	275.392762170173	275.492748979945	0.099986809771508	0.200026526581496
40783.25	100	395	2	115	1	1	90	2	2	0	2	157.5	112.5	-1.93301940169354	1.70062534144521	0.2	0	0	0	275.692771118134	275.792755246162	0.0999841280281544	0.200022138189524
40858.25	100	396	2	116	1	1	90	2	2	0	1	22.5	67.5	-0.28668821960459	2.45204087847051	0.2	0	0	0	275.992797132581	276.092765656766	0.099968524184078	0.200041886419058
40933.25	100	397	2	117	1	1	90	2	2	0	2	67.5	22.5	0.136230029336423	0.83433211229167	0.2	0	0	0	276.292791451793	276.392768996768	0.0999775449745357	0.200025795027614
41008.25	100	398	2	118	1	1	90	2	2	0	1	112.5	67.5	-0.606000263080073	-0.764250817551452	0.2	0	0	0	276.592794791795	276.692800619174	0.100005827378482	0.200025795027614
41083.25	100	399	2	119	1	1	90	2	2	0	1	112.5	157.5	2.66721962910072	-0.783690999925851	0.2	0	0	0	276.8928368981	276.992812492419	0.0999755943194032	0.200036278925836
41158.25	100	400	2	120	1	1	90	2	2	0	2	67.5	22.5	-2.84016584317746	-1.23794484930429	0.2	0	0	0	277.192832679953	277.292819002178	0.0999863222241402	0.200020187534392
41233.25	100	401	2	121	1	1	90	2	2	0	1	112.5	157.5	2.65166441557775	1.64451888905545	0.2	0	0	0	277.492807006929	277.592806007247	0.0999990003183484	0.199988004751503
41308.25	100	402	2	122	1	1	90	2	2	0	1	22.5	67.5	-0.426059634530214	1.3533449304815	0.2	0	0	0	277.792833508924	277.892813004553	0.0999794956296682	0.200027501676232
41383.25	100	403	2	123	1	1	90	2	2	0	1	112.5	67.5	-0.681199008266473	2.79136062242392	0.2	0	0	0	278.092836605385	278.192821708508	0.09998510312289	0.200023600831628
41458.25	100	404	2	124	1	1	90	2	2	0	2	157.5	22.5	0.0172831292546549	-2.47589029705959	0.2	0	0	0	278.39285530569	278.492824804969	0.0999694992788136	0.200033597182482
41533.25	100	405	2	125	1	1	90	2	2	0	1	22.5	157.5	-2.30046811894698	0.833598673496235	0.2	0	0	0	278.692875224631	278.792844967917	0.0999697432853281	0.200050419662148
41608.25	100	406	2	126	1	1	90	2	2	0	1	112.5	157.5	-0.532547975595191	-0.890672252477548	0.2	0	0	0	278.992871494498	279.092843675986	0.0999721814878285	0.200026526581496
41683.25	100	407	2	127	1	1	90	2	2	0	2	67.5	112.5	-0.916424270216516	-3.04511294283256	0.2	0	0	0	279.292893364094	279.392874810379	0.0999814462848008	0.200049688108265
41758.25	100	408	2	128	1	1	90	2	2	0	2	157.5	22.5	-0.0510016591826545	0.514930160335427	0.2	0	0	0	279.592900848947	279.692875224631	0.0999743756838143	0.200026038568467
41833.25	100	409	2	129	1	1	90	2	2	0	2	67.5	22.5	-0.735908232188659	1.17861289492267	0.2	0	0	0	279.892902482767	279.99288270995	0.0999802271835506	0.200027258135378
41908.25	100	410	2	130	1	1	90	2	2	0	2	157.5	22.5	-2.84397051052191	2.06286789937298	0.2	1	0	0	280.192906798329	280.292894583195	0.0999877848662436	0.200024088378996
41983.25	100	411	2	131	1	1	90	2	2	0	2	67.5	112.5	0.677023020905707	1.74540914246369	0.2	0	0	0	280.492918428034	280.592904506251	0.0999860782176256	0.200023844838142
42058.25	100	412	2	132	1	1	90	2	2	0	1	22.5	157.5	-1.08931008330672	-2.28070614981791	0.2	0	0	0	280.792922255583	280.892906871159	0.0999846155755222	0.200017749331892
42133.25	100	413	2	133	1	1	90	2	2	0	1	112.5	67.5	-1.30541085660342	-1.21523031537964	0.2	0	0	0	281.092926083598	281.192903141025	0.0999770574271679	0.200019212439656
42208.25	100	414	2	134	1	1	90	2	2	0	1	112.5	157.5	-2.97267097964014	-1.91389343163844	0.2	0	0	0	281.392929667607	281.492933787871	0.100004120264202	0.200026526581496
42283.25	100	415	2	135	1	1	90	2	2	0	1	22.5	67.5	-2.66977701137415	-1.38333746123098	0.2	0	0	0	281.692936908454	281.792921768036	0.0999848595820367	0.200003120582551
42358.25	100	416	2	136	1	1	90	2	2	0	2	67.5	112.5	-1.58462179988818	-3.00493774760651	0.2	0	0	0	281.992946343962	282.092950220685	0.100003876723349	0.200024575926363
42433.25	100	417	2	137	1	1	90	2	2	0	2	67.5	112.5	-0.826860343052578	2.27454868621596	0.2	0	0	0	282.292972602416	282.392956730444	0.0999841280281544	0.200022381730378
42508.25	100	418	2	138	1	1	90	2	2	0	2	67.5	22.5	-1.70157494497447	1.00241344590145	0.2	0	0	0	282.592957412824	282.692941540852	0.0999841280281544	0.20000068238005
42583.25	100	419	2	139	1	1	90	2	2	0	2	157.5	112.5	-1.11776873614521	-0.162670994302489	0.2	0	0	0	282.89296538569	282.992938054726	0.0999726690351963	0.200023844838142
42658.25	100	420	2	140	1	1	90	2	2	3	2	157.5	22.5	-0.83055140004849	-1.841958850767	0.2	0	0	0	283.192998226732	283.292976747267	0.0999785205349326	0.200060172006488
42733.25	100	421	2	141	1	1	90	2	2	3	2	67.5	22.5	0.384655679220549	1.3059923275336	0.2	0	0	0	283.492970847059	283.592955218628	0.0999843715690076	0.199994099792093
42808.25	100	422	2	142	1	1	90	2	2	3	1	22.5	67.5	-0.308533175130884	1.32271606762359	0.2	0	0	0	283.792978331912	283.89296148438	0.0999831524677575	0.20002311328426
42883.25	100	423	2	143	1	1	90	2	2	3	2	67.5	112.5	1.29187265369721	2.82284056375142	0.2	0	0	0	284.092987767421	284.192970432341	0.0999826649203897	0.200026283040643
44829.25	100	424	3	0	2	2	0	2	2	3	2	157.5	22.5	-2.85425740742342	-1.25994594176341	0.266666666666667	1	0	0	291.876560168341	291.976549416315	0.0999892479740083	-1
44908.25	100	425	3	1	2	2	0	2	2	3	2	67.5	22.5	1.37889992394507	-2.5583337575329	0.216666666666667	0	0	0	292.193253739271	292.293254202232	0.100000462960452	0.216704322956502
44995.75	100	426	3	2	2	2	0	2	2	3	1	112.5	157.5	1.96293827542743	-1.15543459400045	0.25	0	0	0	292.543220739346	292.643200478982	0.0999797396361828	0.249966537114233
45079.25	100	427	3	3	2	2	0	2	2	3	2	157.5	112.5	0.31314844092006	-2.36481943331879	0.233333333333333	0	0	0	292.876559680328	292.97654161416	0.0999819338321686	0.233359201345593
45129.25	100	428	3	4	2	2	0	2	2	0	2	157.5	112.5	0.224572480781353	-2.77515964808891	0.1	0	0	0	293.076566946227	293.176553999539	0.0999870533123612	0.100025332067162
45220.75	100	429	3	5	2	2	0	2	2	0	2	67.5	112.5	0.952238465128543	0.0704889242353874	0.266666666666667	0	0	0	293.443274158053	293.543241951149	0.0999677930958569	0.266720158513635
45279.25	100	430	3	6	2	2	0	2	2	0	2	157.5	112.5	1.35629626740316	-1.66968315192516	0.133333333333333	0	0	0	293.676617268473	293.776593106799	0.0999758383259177	0.133375317323953
45379.25	100	431	3	7	2	2	0	2	2	0	1	112.5	157.5	0.464467910442582	0.570180014618652	0.3	0	0	0	294.076617171057	294.176605687477	0.099988516420126	0.300024064257741
45450	100	432	3	8	2	2	0	2	2	0	1	112.5	67.5	-1.1162196260552	0.0918767718149711	0.183333333333333	0	0	0	294.359960756265	294.459946347401	0.0999855911359191	0.183355068787932
45529.25	100	433	3	9	2	2	0	2	2	0	2	67.5	112.5	1.72136105564413	0.849388754421224	0.216666666666667	0	0	0	294.676635798067	294.776602859143	0.0999670610763133	0.216689450666308
45595.75	100	434	3	10	2	2	0	2	2	0	2	67.5	112.5	3.03996318922671	-1.53839021895491	0.166666666666667	0	0	0	294.943287933711	295.04327523103	0.0999872973188758	0.166685074567795
45683.25	100	435	3	11	2	2	0	2	2	0	2	157.5	112.5	-1.30224999405042	-0.875939565890534	0.25	0	0	0	295.293322713114	295.393304890487	0.0999821773730218	0.250047482084483
45741.75	100	436	3	12	2	2	0	2	2	0	1	112.5	67.5	-2.88957194460417	-0.0400649985881283	0.133333333333333	0	0	0	295.526664359961	295.626647025347	0.0999826653860509	0.133359469473362
45829.25	100	437	3	13	2	2	0	2	2	0	1	22.5	67.5	-0.622342743052653	0.713283145585883	0.25	0	0	0	295.876671345439	295.976655961014	0.0999846155755222	0.250024320092052
45929.25	100	438	3	14	2	2	0	2	2	0	2	67.5	22.5	-0.248544220617781	1.47820392962242	0.3	0	0	0	296.27668368211	296.376646111254	0.0999624291434884	0.30002772109583
45991.75	100	439	3	15	2	2	0	2	2	0	2	157.5	112.5	3.023551619259	-2.76024564101774	0.15	0	0	0	296.526665091515	296.626647269353	0.0999821778386831	0.150018980260938
46041.75	100	440	3	16	2	2	0	2	2	0	1	22.5	67.5	-0.0644146364572697	-1.95903466352102	0.1	0	0	0	296.726675282698	296.826655753888	0.0999804711900651	0.100028013344854
46100	100	441	3	17	2	2	0	2	2	0	2	67.5	112.5	-2.49421329775531	1.58915245203287	0.133333333333333	0	0	0	296.960012297612	297.059994231444	0.0999819338321686	0.133356543723494
46175	100	442	3	18	2	2	0	2	2	0	2	67.5	112.5	-0.25213488746152	2.65486036341483	0.2	0	0	0	297.260019051377	297.360002691392	0.0999836400151253	0.200024819932878
46250	100	443	3	19	2	2	0	2	2	0	1	22.5	157.5	-0.520569046107606	-1.33407410675814	0.2	0	0	0	297.560028974432	297.660038458649	0.100009484216571	0.200026283040643
46345.75	100	444	3	20	2	2	0	2	2	0	1	22.5	157.5	2.75937068045339	0.542476488057368	0.283333333333333	0	0	0	297.943399598356	298.043360808399	0.0999612100422382	0.283361139707267
46400	100	445	3	21	2	2	0	2	2	0	1	112.5	67.5	-2.5554720108449	-0.852124660311671	0.116666666666667	0	0	0	298.160062229726	298.260041969363	0.0999797396361828	0.116701421327889
46454.25	100	446	3	22	2	2	0	2	2	0	1	22.5	157.5	0.871302949101556	-2.88073429828162	0.116666666666667	0	0	0	298.37671949761	298.476704113185	0.0999846155755222	0.116677528247237
46545.75	100	447	3	23	2	2	0	2	2	3	2	67.5	22.5	0.286706258024706	0.875640871387806	0.266666666666667	0	0	0	298.743419151753	298.843396453187	0.0999773014336824	0.266715038567781
46620.75	100	448	3	24	2	2	0	2	2	3	2	157.5	112.5	0.161175355834196	0.274765900249464	0.2	0	0	0	299.043402743526	299.143408570439	0.10000582691282	0.200006290338933
46687.5	100	449	3	25	2	2	0	2	2	3	1	22.5	67.5	-2.05376392214073	-3.01043206067039	0.166666666666667	0	0	0	299.310098520946	299.410068995785	0.0999704748392105	0.166689950507134
46770.75	100	450	3	26	2	2	0	2	2	1	-1	0	135	1.52602369459311	1.45978149902248	0.233333333333333	0	0	0	299.643431854434	299.743397696409	0.0999658419750631	0.233362858649343
46870.75	100	451	3	27	2	2	0	2	2	3	2	157.5	22.5	-2.40923085834922	-2.13235431700407	0.3	0	0	0	300.043451992795	300.143436852377	0.0999848595820367	0.300054296385497
46966.75	100	452	3	28	2	2	0	2	2	3	2	67.5	112.5	-1.79893741112268	-1.12904558088496	0.283333333333333	0	0	0	300.426794578787	300.526760421228	0.0999658424407244	0.283357726410031
47029.25	100	453	3	29	2	2	0	2	2	3	1	112.5	157.5	2.62104706128944	0.358039956517604	0.15	0	0	0	300.676810365636	300.776783765759	0.0999734001234174	0.150049944408238
47079.25	100	454	3	30	2	2	0	2	2	3	1	22.5	157.5	0.258743721707248	0.497601265045182	0.1	0	0	0	300.876812267117	300.976787861902	0.0999755947850645	0.100028501357883
47145.75	100	455	3	31	2	2	0	2	2	0	1	22.5	157.5	2.36652162734203	1.41909261865781	0.166666666666667	0	0	0	301.143459526822	301.243450724985	0.0999911981634796	0.166671664919704
47237.5	100	456	3	32	2	2	0	2	2	0	1	22.5	67.5	1.96116841533937	0.656887173610263	0.266666666666667	0	0	0	301.510142845567	301.610138676595	0.099995831027627	0.266692120581865
47291.75	100	457	3	33	2	2	0	2	2	0	2	67.5	112.5	-2.87834289536445	-1.72620223853458	0.116666666666667	0	0	0	301.72680206364	301.826783997472	0.0999819338321686	0.116663387045264
47391.75	100	458	3	34	2	2	0	2	2	0	2	157.5	22.5	0.920034776453506	-1.98910564836696	0.3	0	0	0	302.126811718568	302.226796334144	0.0999846155755222	0.30002772109583
47458.5	100	459	3	35	2	2	0	2	2	0	1	112.5	67.5	-0.224660932326141	-0.0899497485432894	0.166666666666667	0	0	0	302.393487260211	302.493470169138	0.0999829089269042	0.166690926067531
47546	100	460	3	36	2	2	0	2	2	0	2	67.5	112.5	0.660517247684163	0.000238810491597352	0.25	0	0	0	302.743498146068	302.843477641698	0.0999794956296682	0.250027976930141
47600	100	461	3	37	2	2	0	2	2	0	2	67.5	22.5	-1.48684041575196	0.971386400399814	0.116666666666667	0	0	0	302.960167848039	303.060150513425	0.0999826653860509	0.116690206341445
47687.5	100	462	3	38	2	2	0	2	2	0	2	157.5	22.5	3.05867055161942	0.0511595689161228	0.25	0	0	0	303.310177759267	303.410186024383	0.100008265115321	0.25002724584192
47762.5	100	463	3	39	2	2	0	2	2	0	2	157.5	112.5	1.34335096154701	-0.416537558676618	0.2	0	0	0	303.610214501154	303.71020618733	0.0999916861765087	0.200028476770967
47850	100	464	3	40	2	2	0	2	2	0	1	112.5	67.5	-3.04428584767021	2.24660934919687	0.25	0	0	0	303.96019856818	304.060175382067	0.0999768138863146	0.249992380850017
47921	100	465	3	41	2	2	0	2	2	0	1	22.5	157.5	-2.3225648861122	-3.1395199343433	0.183333333333333	0	0	0	304.243545323145	304.343523356132	0.0999780329875648	0.183369941078126
47991.75	100	466	3	42	2	2	0	2	2	0	2	157.5	22.5	0.228135885271936	1.50355582526173	0.183333333333333	0	0	0	304.526884763967	304.626858408097	0.0999736441299319	0.183361407835037
48091.75	100	467	3	43	2	2	0	2	2	0	2	157.5	112.5	2.78360625527194	1.91628236740595	0.3	0	0	0	304.926890518051	305.026872695424	0.0999821773730218	0.300032109953463
48154.25	100	468	3	44	2	2	0	2	2	0	1	22.5	67.5	1.55309720428262	-3.03344515120958	0.15	0	0	0	305.176897283643	305.276878729928	0.0999814462848008	0.150024588219821
48237.5	100	469	3	45	2	2	0	2	2	0	1	112.5	67.5	-1.03136980531229	0.898030307150087	0.233333333333333	0	0	0	305.510235493071	305.610222303309	0.0999868102371693	0.233356763143092
48308.5	100	470	3	46	2	2	0	2	2	0	2	67.5	112.5	-0.184311498598105	-3.11427369121885	0.183333333333333	0	0	0	305.79357810365	305.893565157428	0.0999870537780225	0.183355800341815
48391.75	100	471	3	47	2	2	0	2	2	0	1	22.5	67.5	-2.67123910213422	1.30147445088649	0.233333333333333	0	0	0	306.126921433024	306.226904097944	0.0999826649203897	0.233356275595725
48450	100	472	3	48	2	2	0	2	2	0	1	112.5	157.5	0.271833330753318	-2.15949174528332	0.133333333333333	0	0	0	306.360287704971	306.460258910898	0.0999712059274316	0.13338360702619
48537.5	100	473	3	49	2	2	0	2	2	0	1	112.5	157.5	1.19461551525301	-1.11645510638506	0.25	0	0	0	306.710296884645	306.810256631579	0.0999597469344735	0.250037973746657
48591.75	100	474	3	50	2	2	0	2	2	0	2	157.5	112.5	-1.8012286266382	-2.85343473647002	0.116666666666667	0	0	0	306.926971950568	307.02695583459	0.0999838840216398	0.116715318989009
48658.5	100	475	3	51	2	2	0	2	2	0	1	112.5	157.5	-1.64618995079615	-2.4136090317808	0.166666666666667	0	0	0	307.193631643895	307.293599680532	0.0999680366367102	0.166675809305161
48754.25	100	476	3	52	2	2	0	2	2	0	1	112.5	67.5	0.206070325024813	-0.136559845421291	0.283333333333333	0	0	0	307.576961551793	307.67694543628	0.0999838844873011	0.28336187126115
48812.5	100	477	3	53	2	2	0	2	2	0	2	157.5	22.5	-1.54488017785273	-0.216428481313844	0.133333333333333	0	0	0	307.810304418206	307.910283913836	0.0999794956296682	0.133358981925994
48891.75	100	478	3	54	2	2	0	2	2	0	1	22.5	67.5	-1.0170936719652	0.122836246814558	0.216666666666667	0	0	0	308.126977021806	308.226996989455	0.100019967649132	0.216693107970059
48987.5	100	479	3	55	2	2	0	2	2	3	2	157.5	22.5	0.17669240369681	1.92032264655589	0.283333333333333	1	0	0	308.510347889271	308.610332748853	0.0999848595820367	0.283350899815559
49054.25	100	480	3	56	2	2	0	2	2	3	1	22.5	157.5	-2.32742084681091	-2.21049089315218	0.166666666666667	0	0	0	308.777023674455	308.877013166435	0.0999894919805229	0.16669092560187
49133.5	100	481	3	57	2	2	0	2	2	3	1	112.5	157.5	2.31256899896249	-1.48774960268843	0.216666666666667	0	0	0	309.09369847225	309.193682844285	0.0999843720346689	0.21668530581519
49183.5	100	482	3	58	2	2	0	2	2	2	-1	135	0	-0.0850235443360887	2.71470536922461	0.1	0	0	0	309.293705006596	309.393688159063	0.0999831524677575	0.100022162310779
49275	100	483	3	59	2	2	0	2	2	3	1	22.5	67.5	-1.80982936856177	-3.02019667176609	0.266666666666667	0	0	0	309.660386374686	309.760368796065	0.0999824213795364	0.266698215622455
49350	100	484	3	60	2	2	0	2	2	3	2	67.5	22.5	-1.39570163841625	1.54708394491171	0.2	0	0	0	309.960387764499	310.060349462088	0.099961697589606	0.200018968433142
49408.5	100	485	3	61	2	2	0	2	2	3	2	67.5	112.5	-0.4891014881866	1.57458868428157	0.133333333333333	0	0	0	310.193708200473	310.293688671198	0.0999804707244039	0.133358738385141
49508.5	100	486	3	62	2	2	0	2	2	3	1	112.5	67.5	-2.96441315251869	1.52987848740785	0.3	0	0	0	310.593713954091	310.69369905768	0.0999851035885513	0.30002528289333
49591.75	100	487	3	63	2	2	0	2	2	0	1	22.5	157.5	1.86264912638374	0.791796721440806	0.233333333333333	0	0	0	310.927060453221	311.027039948851	0.0999794956296682	0.233361395541579
49662.5	100	488	3	64	2	2	0	2	2	0	2	67.5	22.5	-2.86894707733212	0.508777968659553	0.183333333333333	0	0	0	311.210398918949	311.310381340329	0.0999824213795364	0.183358970098197
49716.75	100	489	3	65	2	2	0	2	2	0	1	22.5	67.5	-1.24671847280955	-2.0493449072189	0.116666666666667	0	0	0	311.42710129125	311.52706298884	0.099961697589606	0.116719950921834
49791.75	100	490	3	66	2	2	0	2	2	0	1	112.5	157.5	-0.562973479313264	-2.30804146572773	0.2	0	0	0	311.727106825914	311.82708558999	0.0999787640757859	0.20004383707419
49841.75	100	491	3	67	2	2	0	2	2	0	2	157.5	22.5	1.34529869970773	1.45473153925939	0.1	0	0	0	311.927112384699	312.027071400546	0.0999590158462524	0.100026794709265
49916.75	100	492	3	68	2	2	0	2	2	0	1	112.5	67.5	1.26477012740002	-2.83275151943297	0.2	0	0	0	312.227091587614	312.327077422291	0.0999858346767724	0.200020187068731
49979.25	100	493	3	69	2	2	0	2	2	0	2	67.5	112.5	-0.626868283347766	0.864695859098254	0.15	0	0	0	312.47710176697	312.577086626086	0.0999848591163754	0.150024344678968
50058.5	100	494	3	70	2	2	0	2	2	0	1	112.5	157.5	-2.85754031374865	-0.220416376157139	0.216666666666667	0	0	0	312.793775589205	312.89375996124	0.0999843720346689	0.216688963118941
50154.25	100	495	3	71	2	2	0	2	2	0	2	157.5	112.5	-2.4218892960252	0.97049022962054	0.283333333333333	0	0	0	313.177151089534	313.277107910719	0.0999568211846054	0.28339112829417
50246	100	496	3	72	2	2	0	2	2	0	2	157.5	112.5	2.48696320405043	2.87342064828802	0.266666666666667	0	0	0	313.543801250402	313.643777820282	0.0999765698798001	0.266693339683115
50321	100	497	3	73	2	2	0	2	2	0	2	67.5	22.5	-0.832381649864622	1.52295315420476	0.2	0	0	0	313.843810197897	313.943791888189	0.0999816902913153	0.200032377615571
50387.5	100	498	3	74	2	2	0	2	2	0	2	157.5	22.5	-0.347177531224447	0.494250173250731	0.166666666666667	0	0	0	314.110478668939	314.210460115224	0.0999814462848008	0.166686780750751
50471	100	499	3	75	2	2	0	2	2	0	2	157.5	22.5	1.24918983416672	-1.02345258499845	0.233333333333333	0	0	0	314.443846866954	314.543828800786	0.0999819338321686	0.233386751729995
50566.75	100	500	3	76	2	2	0	2	2	0	1	22.5	67.5	1.62334864319592	-0.662028040282029	0.283333333333333	0	0	0	314.827190915588	314.927173580974	0.0999826653860509	0.283362114802003
50662.75	100	501	3	77	2	2	0	2	2	0	2	67.5	22.5	-1.73783489033552	2.30544021046884	0.283333333333333	0	0	0	315.210530819837	315.310499100015	0.0999682801775634	0.283357238862664
50721	100	502	3	78	2	2	0	2	2	0	1	22.5	67.5	-0.160521472975414	-0.5748039241869	0.133333333333333	0	0	0	315.44386978494	315.543854400516	0.0999846155755222	0.133370684925467
50808.5	100	503	3	79	2	2	0	2	2	0	2	67.5	22.5	-1.51031118584494	2.40850510267815	0.25	0	0	0	315.793878964614	315.893853096291	0.0999741316772997	0.250024564098567
50891.75	100	504	3	80	2	2	0	2	2	0	2	67.5	22.5	-2.88782972481206	-0.481462048441772	0.233333333333333	0	0	0	316.127223757096	316.227204959374	0.0999812022782862	0.233370660804212
50950.25	100	505	3	81	2	2	0	2	2	3	1	22.5	67.5	-1.08813991302234	1.39845440615114	0.133333333333333	0	0	0	316.360565891955	316.460547337774	0.0999814458191395	0.133360932581127
51050.25	100	506	3	82	2	2	0	2	2	3	1	22.5	157.5	-1.34491512499596	-2.80524499163045	0.3	0	0	0	316.760574815329	316.860541145317	0.0999663299880922	0.300027477554977
51146	100	507	3	83	2	2	0	2	2	3	2	67.5	22.5	-0.847936280447656	0.83459664624143	0.283333333333333	0	0	0	317.143893995322	317.243875197601	0.0999812022782862	0.283352850005031
51225.25	100	508	3	84	2	2	0	2	2	1	-1	0	45	0.261036945428075	0.938296359977135	0.216666666666667	0	0	0	317.460571231321	317.560556090437	0.0999848591163754	0.216696033719927
51279.25	100	509	3	85	2	2	0	2	2	3	1	112.5	67.5	0.493161754336862	-1.01872665883343	0.116666666666667	0	0	0	317.677240933292	317.777226767968	0.0999858346767724	0.116684842854738
51329.25	100	510	3	86	2	2	0	2	2	3	1	112.5	157.5	-1.80916291160678	-2.96193451711589	0.1	0	0	0	317.877250392921	317.977230132557	0.0999797396361828	0.100023624952883
51391.75	100	511	3	87	2	2	0	2	2	3	2	157.5	112.5	-1.34279596138962	2.14469190731414	0.15	0	0	0	318.127253014129	318.227235191502	0.0999821773730218	0.150022881571203
51483.5	100	512	3	88	2	2	0	2	2	3	2	157.5	22.5	2.58374472563337	2.19794839569568	0.266666666666667	0	0	0	318.493934138678	318.593914609402	0.0999804707244039	0.266698947176337
51575.25	100	513	3	89	2	2	0	2	2	0	2	157.5	22.5	-1.32186491993599	-2.26958191047819	0.266666666666667	0	0	0	318.860611605924	318.960614020005	0.100002414081246	0.266696996521205
51666.75	100	514	3	90	2	2	0	2	2	0	1	112.5	157.5	-2.80360650755171	-2.39101409365649	0.266666666666667	0	0	0	319.227306140121	319.32729148725	0.0999853471294045	0.266692120116204
51762.75	100	515	3	91	2	2	0	2	2	0	1	112.5	157.5	-1.09422018655818	2.31633723551316	0.283333333333333	0	0	0	319.610652870964	319.710635292344	0.0999824213795364	0.283361383713782
51858.5	100	516	3	92	2	2	0	2	2	0	2	157.5	22.5	-1.94679993428977	-0.410513752748042	0.283333333333333	0	0	0	319.994000089355	320.093962030485	0.0999619411304593	0.283364797011018
51933.5	100	517	3	93	2	2	0	2	2	0	1	22.5	67.5	-1.83178776647736	-0.708238835765376	0.2	0	0	0	320.293981730472	320.3939658585	0.0999841280281544	0.200019699987024
52033.5	100	518	3	94	2	2	0	2	2	0	1	22.5	157.5	-2.92362303248948	-2.21003179168083	0.3	0	0	0	320.693992360495	320.793972587679	0.0999802271835506	0.30002650199458
52096	100	519	3	95	2	2	0	2	2	0	1	112.5	157.5	-2.24519199200642	-0.6032031143979	0.15	0	0	0	320.944023019634	321.043988130521	0.099965110886842	0.150050431955606
52179.25	100	520	3	96	2	2	0	2	2	0	2	67.5	112.5	2.60441746832139	1.987285652204	0.233333333333333	0	0	0	321.277362935711	321.377331947442	0.0999690117314458	0.233374805189669
52258.5	100	521	3	97	2	2	0	2	2	0	2	157.5	112.5	1.73524432450127	-1.44716872844928	0.216666666666667	0	0	0	321.594042853452	321.694020642433	0.0999777889810503	0.216710906010121
52321	100	522	3	98	2	2	0	2	2	0	2	67.5	22.5	1.38072533154116	1.96466316230488	0.15	0	0	0	321.84404864395	321.944027895574	0.0999792516231537	0.150028001517057
52408.5	100	523	3	99	2	2	0	2	2	0	1	22.5	157.5	-1.6066860472502	2.13423956983747	0.25	0	0	0	322.194033686072	322.294014400803	0.0999807147309184	0.250005790498108
52462.75	100	524	3	100	2	2	0	2	2	0	1	112.5	157.5	1.31590908263402	1.08130687370417	0.116666666666667	0	0	0	322.410705338698	322.510686053429	0.0999807147309184	0.116690937895328
52562.75	100	525	3	101	2	2	0	2	2	0	1	22.5	67.5	1.99024950999997	1.12654624580123	0.3	1	0	0	322.810714993626	322.910732767079	0.100017773453146	0.30002894019708
52662.75	100	526	3	102	2	2	0	2	2	0	2	67.5	112.5	3.12696660757276	3.04635234180439	0.3	0	0	0	323.21072684275	323.310708776582	0.0999819338321686	0.299994075670838
52754.25	100	527	3	103	2	2	0	2	2	0	1	22.5	157.5	2.78168138274815	-1.07758041770422	0.266666666666667	0	0	0	323.577428935096	323.677409893367	0.0999809582717717	0.266720158513635
52821	100	528	3	104	2	2	0	2	2	0	1	22.5	67.5	0.375410013761032	0.169733665157311	0.166666666666667	0	0	0	323.844100087881	323.944081777707	0.099981689825654	0.166690194513649
52871	100	529	3	105	2	2	0	2	2	0	1	112.5	67.5	-0.924110906804448	-2.8868504076213	0.1	0	0	0	324.04410345247	324.144093187992	0.0999897355213761	0.100021674763411
52941.75	100	530	3	106	2	2	0	2	2	0	1	112.5	157.5	-2.10604559441542	-2.2429206733869	0.183333333333333	0	0	0	324.327448500786	324.427429703064	0.0999812022782862	0.183355312794447
53012.75	100	531	3	107	2	2	0	2	2	0	1	22.5	67.5	2.99431795063066	1.78043591018576	0.183333333333333	0	0	0	324.610789160244	324.710773532279	0.0999843720346689	0.183359457179904
53096	100	532	3	108	2	2	0	2	2	0	2	157.5	112.5	-0.381540919433307	-2.01677269003615	0.233333333333333	0	0	0	324.944106889889	325.044091017917	0.0999841280281544	0.233333357609808
53191.75	100	533	3	109	2	2	0	2	2	0	2	67.5	112.5	1.63353787721894	-0.425156031484953	0.283333333333333	0	0	0	325.327454595827	325.427433116361	0.0999785205349326	0.283363577909768
53254.25	100	534	3	110	2	2	0	2	2	0	1	22.5	157.5	-0.836993972350825	1.44950899082211	0.15	0	0	0	325.577466969378	325.677448415197	0.0999814458191395	0.150033853016794
53304.25	100	535	3	111	2	2	0	2	2	0	2	67.5	22.5	-0.439318005974035	-0.301211304463064	0.1	0	0	0	325.777462531812	325.8774464163	0.0999838844873011	0.100014116615057
53379.25	100	536	3	112	2	2	0	2	2	0	2	157.5	22.5	-1.11956716559699	-0.572415049778949	0.2	0	0	0	326.077503175009	326.177457801998	0.0999546269886196	0.200056758709252
53479.25	100	537	3	113	2	2	0	2	2	0	1	112.5	67.5	0.705088025918585	0.3301154838387	0.3	0	0	0	326.47748186579	326.577465506271	0.0999836404807866	0.30002406379208
53541.75	100	538	3	114	2	2	0	2	2	0	2	157.5	22.5	2.5189065556802	1.58046815438035	0.15	0	0	0	326.727491801139	326.827476660721	0.0999848595820367	0.150026294868439
53612.75	100	539	3	115	2	2	0	2	2	0	2	157.5	112.5	-1.46281455076489	1.04288611696776	0.183333333333333	0	0	0	327.010835142806	327.110811956692	0.0999768138863146	0.183358482085168
53666.75	100	540	3	116	2	2	0	2	2	0	2	157.5	22.5	-0.253451663094922	1.40419640529058	0.116666666666667	0	0	0	327.227503138594	327.327513841446	0.10001070285216	0.116691181901842
53758.5	100	541	3	117	2	2	0	2	2	0	2	67.5	22.5	-0.899236206067559	2.20725378021275	0.266666666666667	0	0	0	327.594187676441	327.694161076564	0.0999734001234174	0.266673834994435
53837.75	100	542	3	118	2	2	0	2	2	0	1	22.5	157.5	0.805096867910928	-1.13354122654837	0.216666666666667	0	0	0	327.910860767122	328.01083880011	0.0999780329875648	0.216699690558016
53887.75	100	543	3	119	2	2	0	2	2	0	2	67.5	112.5	2.76090000230139	-1.87568320411341	0.1	0	0	0	328.110855842475	328.210842408706	0.0999865662306547	0.100017042364925
53954.25	100	544	3	120	2	2	0	2	2	3	1	112.5	67.5	3.13062075999755	-0.600935541870405	0.166666666666667	0	0	0	328.3775318712	328.477516243234	0.0999843720346689	0.166689462494105
54025.25	100	545	3	121	2	2	0	2	2	3	2	157.5	22.5	0.641732417873112	-0.405676228119583	0.183333333333333	0	0	0	328.660877407528	328.760860559996	0.0999831524677575	0.183361164294183
54075.25	100	546	3	122	2	2	0	2	2	3	2	157.5	112.5	0.540155421856703	-2.83376860618242	0.1	0	0	0	328.860878577456	328.960859292187	0.0999807147309184	0.100018017459661
54129.5	100	547	3	123	2	2	0	2	2	2	-1	135	0	-2.78091037348077	-2.74999834614091	0.116666666666667	0	0	0	329.07758436352	329.177536796313	0.0999524327926338	0.116725071333349
54221	100	548	3	124	2	2	0	2	2	3	1	22.5	67.5	-1.4214511726301	2.43493541621288	0.266666666666667	0	0	0	329.444234280381	329.544218652416	0.0999843720346689	0.266697484068573
54279.5	100	549	3	125	2	2	0	2	2	3	1	112.5	157.5	1.96392181537378	2.97873115679623	0.133333333333333	0	0	0	329.677573001944	329.777555423323	0.0999824213795364	0.133354349527508
54354.5	100	550	3	126	2	2	0	2	2	3	2	67.5	22.5	2.66531390358695	-1.13151345489844	0.2	0	0	0	329.977579755709	330.077586314175	0.100006558466703	0.20002433238551
54417	100	551	3	127	2	2	0	2	2	3	1	22.5	157.5	2.55339045259687	-0.0729359991850136	0.15	0	0	0	330.227588715497	330.327570405323	0.099981689825654	0.150002401322126
54508.5	100	552	3	128	2	2	0	2	2	0	1	112.5	67.5	0.817086417224249	-0.361725889797675	0.266666666666667	0	0	0	330.59426155081	330.694245190825	0.0999836400151253	0.26669114548713
54558.5	100	553	3	129	2	2	0	2	2	0	1	112.5	157.5	-2.25343854781246	0.192882751054544	0.1	0	0	0	330.794260038994	330.894275374711	0.100015335716307	0.100014848168939
54625.25	100	554	3	130	2	2	0	2	2	0	2	67.5	22.5	-1.24192111899268	-1.09198749804644	0.166666666666667	0	0	0	331.060967519414	331.160922877956	0.0999553585425019	0.16669214470312
54683.5	100	555	3	131	2	2	0	2	2	0	1	22.5	157.5	0.495047782794312	2.67380657418329	0.133333333333333	0	0	0	331.29428234743	331.394262087066	0.0999797396361828	0.133359469473362
54767	100	556	3	132	2	2	0	2	2	0	1	112.5	157.5	-1.74679358597812	-2.59104245539254	0.233333333333333	0	0	0	331.627623726614	331.727606391534	0.0999826649203897	0.233361639548093
54846	100	557	3	133	2	2	0	2	2	0	1	112.5	67.5	-2.57956685469174	-0.937054327357859	0.216666666666667	0	0	0	331.944296330214	332.044279726688	0.099983396474272	0.216689938679338
54925.25	100	558	3	134	2	2	0	2	2	0	2	157.5	22.5	1.56668046893897	2.9896935352484	0.216666666666667	0	0	0	332.260973078199	332.360988169909	0.100015091709793	0.216693351510912
54987.75	100	559	3	135	2	2	0	2	2	0	1	112.5	67.5	-0.327248535549864	-0.14015839716885	0.15	0	0	0	332.511016171426	332.61098762136	0.0999714499339461	0.150028001517057
55046	100	560	3	136	2	2	0	2	2	0	2	67.5	22.5	0.945544275014018	1.18395714113825	0.133333333333333	0	0	0	332.744327098597	332.844330731779	0.100003633182496	0.133339477237314
55112.75	100	561	3	137	2	2	0	2	2	0	2	157.5	112.5	2.36128150073107	1.24529352936872	0.166666666666667	0	0	0	333.010995326098	333.111003591213	0.100008265115321	0.166664594318718
55162.75	100	562	3	138	2	2	0	2	2	0	1	22.5	157.5	-1.28497641810583	1.09005083440753	0.1	0	0	0	333.211025997065	333.311006955802	0.099980958737433	0.100022405851632
55242	100	563	3	139	2	2	0	2	2	0	2	67.5	22.5	0.532669437042847	-2.50853435949459	0.216666666666667	0	0	0	333.527701526415	333.627681509592	0.099979983177036	0.216694570612162
55304.5	100	564	3	140	2	2	0	2	2	3	1	112.5	67.5	-0.24436417116774	1.75391102885808	0.15	0	0	0	333.777703903615	333.877666819841	0.0999629162251949	0.150022394023836
55362.75	100	565	3	141	2	2	0	2	2	3	1	22.5	157.5	-2.64339450133963	-0.838329584058845	0.133333333333333	0	0	0	334.011025070678	334.111013587099	0.099988516420126	0.133358250837773
55433.5	100	566	3	142	2	2	0	2	2	3	1	22.5	67.5	-0.598961644704334	2.43449452972386	0.183333333333333	0	0	0	334.2943691439	334.394348151982	0.0999790080823004	0.183355556800961
55487.75	100	567	3	143	2	2	0	2	2	3	2	67.5	112.5	0.29724572621422	-0.210538662785387	0.116666666666667	0	0	0	334.511043965816	334.611021023244	0.0999770574271679	0.116695813834667
57192	100	568	4	0	1	2	0	2	1	3	2	67.5	112.5	-3.13821020379792	1.70977179191861	0.2	0	0	0	341.327881019097	341.427861733362	0.0999807142652571	-1
57267	100	569	4	1	1	2	0	2	1	3	2	67.5	22.5	-0.392148860804538	-2.31668728692401	0.2	0	0	0	341.627908496186	341.72789189266	0.099983396474272	0.200046762824059
57342	100	570	4	2	1	2	0	2	1	3	1	22.5	67.5	-1.6466666074035	3.10286035968095	0.2	0	0	0	341.927901840303	342.027886699885	0.0999848595820367	0.200009947642684
57417	100	571	4	3	1	2	0	2	1	3	2	157.5	22.5	-0.416225050150319	-0.966147210713316	0.2	0	0	0	342.227938338649	342.327892965637	0.0999546269886196	0.200051638763398
57492	100	572	4	4	1	2	0	2	1	0	1	22.5	157.5	2.41294532054857	0.869342115125422	0.2	0	0	0	342.527921198867	342.627929219976	0.100008021108806	0.200028233230114
57567	100	573	4	5	1	2	0	2	1	0	1	112.5	67.5	-0.745172228847139	0.0912187277099283	0.2	0	0	0	342.827990611549	342.92792890314	0.0999382915906608	0.200061391573399
57642	100	574	4	6	1	2	0	2	1	0	1	22.5	67.5	3.03887775531706	1.29267365188625	0.2	0	0	0	343.127947871573	343.227933462244	0.0999855906702578	0.200018968433142
57717	100	575	4	7	1	2	0	2	1	0	2	157.5	22.5	1.30213539174365	2.37743037048724	0.2	0	0	0	343.427965840325	343.527949968353	0.0999841280281544	0.200032378081232
57792	100	576	4	8	1	2	0	2	1	0	1	22.5	67.5	1.26424211029235	0.978852520357819	0.2	0	0	0	343.727976494934	343.827957697213	0.0999812022782862	0.200026526581496
57867	100	577	4	9	1	2	0	2	1	0	2	67.5	112.5	-1.47390134395313	0.988478026119158	0.2	0	0	0	344.027992269024	344.127962256316	0.0999699872918427	0.200034571811557
57942	100	578	4	10	1	2	0	2	1	0	1	22.5	67.5	-0.820240007202754	-2.7519739828014	0.2	0	0	0	344.327986344695	344.427978274412	0.0999919297173619	0.200024088378996
58017	100	579	4	11	1	2	0	2	1	0	2	157.5	112.5	-0.660982958873916	0.929819716104967	0.2	0	0	0	344.62799504865	344.727982833982	0.0999877853319049	0.200016774237156
58092	100	580	4	12	1	2	0	2	1	0	2	67.5	112.5	-2.15839252376835	0.185167235388525	0.2	0	0	0	344.928003265057	345.027996170335	0.0999929052777588	0.200020431075245
58167	100	581	4	13	1	2	0	2	1	0	2	67.5	112.5	-2.06887446919752	1.93037068001621	0.2	0	0	0	345.22799002612	345.327973666601	0.0999836404807866	0.199993855785578
58242	100	582	4	14	1	2	0	2	1	0	2	157.5	22.5	1.85732420030034	1.73086045334224	0.2	0	0	0	345.527997267433	345.627981395461	0.0999841280281544	0.200023600831628
58317	100	583	4	15	1	2	0	2	1	0	1	22.5	157.5	1.7598518249816	0.960132274152326	0.2	0	0	0	345.82800255809	345.927984003909	0.0999814458191395	0.200021162629128
58392	100	584	4	16	1	2	0	2	1	0	2	157.5	112.5	2.58866863596751	0.324046221297181	0.2	0	0	0	346.128012237139	346.227995633613	0.099983396474272	0.200028233230114
58467	100	585	4	17	1	2	0	2	1	0	2	157.5	112.5	-1.36679649266864	-2.5271112264505	0.2	0	0	0	346.428019965999	346.528007994872	0.0999880288727582	0.20002433238551
58542	100	586	4	18	1	2	0	2	1	0	1	22.5	157.5	0.907026876232587	2.07986588785461	0.2	0	0	0	346.728032814804	346.82804107992	0.100008265115321	0.200024819932878
58617	100	587	4	19	1	2	0	2	1	0	1	112.5	67.5	1.94305187261445	0.666097913054382	0.2	0	0	0	347.028066143394	347.128049783874	0.0999836404807866	0.200025063473731
58692	100	588	4	20	1	2	0	2	1	0	1	22.5	157.5	1.67660618292966	1.95427874431172	0.2	0	0	0	347.328049979173	347.428027280141	0.0999773009680212	0.200000195298344
58767	100	589	4	21	1	2	0	2	1	0	1	112.5	157.5	-1.41028229428781	0.212813624747755	0.2	1	0	0	347.62805136852	347.728033789899	0.0999824213795364	0.200024088378996
58842	100	590	4	22	1	2	0	2	1	0	2	157.5	112.5	-0.265601392668966	-0.0694109593546015	0.2	0	0	0	347.928061535582	348.028041031212	0.0999794956296682	0.200027745682746
58917	100	591	4	23	1	2	0	2	1	0	2	67.5	22.5	-0.915227694744563	2.73696937102374	0.2	0	0	0	348.22806804534	348.328051441815	0.099983396474272	0.200027014128864
58992	100	592	4	24	1	2	0	2	1	0	2	67.5	22.5	-0.0639138758533937	1.35787503456434	0.2	0	0	0	348.528086745646	348.628060633317	0.0999738876707852	0.2000353038311
59067	100	593	4	25	1	2	0	2	1	0	2	157.5	112.5	1.80015553773977	-0.530445372463818	0.2	0	0	0	348.828086915892	348.928069337271	0.0999824213795364	0.200026282574981
59142	100	594	4	26	1	2	0	2	1	0	2	157.5	112.5	-2.08461943947159	1.53214887061106	0.2	0	0	0	349.128094888758	349.228075603489	0.0999807147309184	0.20002555148676
59217	100	595	4	27	1	2	0	2	1	0	2	67.5	22.5	1.74486994159361	-0.932909401529749	0.2	0	0	0	349.428100666963	349.528081625234	0.0999809582717717	0.200025063473731
59292	100	596	4	28	1	2	0	2	1	0	2	67.5	112.5	-1.66415392678143	2.47825855536549	0.2	0	0	0	349.728108151816	349.828092767391	0.0999846155755222	0.200026526581496
59367	100	597	4	29	1	2	0	2	1	0	1	112.5	67.5	-1.20490301261622	-1.18642565432377	0.2	0	0	0	350.028123926371	350.128089524806	0.0999655984342098	0.200031158979982
59442	100	598	4	30	1	2	0	2	1	0	1	22.5	67.5	-0.931751992975119	0.562428181870919	0.2	0	0	0	350.328154329676	350.428137238603	0.0999829089269042	0.200064804870635
59517	100	599	4	31	1	2	0	2	1	0	1	112.5	67.5	1.15560105033234	-0.00616022957061402	0.2	0	0	0	350.628153768834	350.728116929065	0.0999631602317095	0.200016530230641
59592	100	600	4	32	1	2	0	2	1	0	1	22.5	157.5	0.216017586117494	2.01589924863302	0.2	0	0	0	350.928141504992	351.028127339669	0.0999858346767724	0.200024575926363
