onset	duration	total_event_number	stream_number	event_num_per_stream	timing_predictability	target_col	target_ori	n_targets	n_distractors	is_target	ori_pair_num	att_ori	unatt_ori	gabor_phase_att	gabor_phase_unatt	blank_dur	response	rt	correct	time_stimon	time_stimoff	stim_dur	ISI_dur
8545	100	0	0	0	2	2	90	2	2	3	2	157.5	22.5	0.152933355282221	-1.67633721045727	0.233333333333333	0	0	0	84.0393784218468	84.1393391441088	0.0999607222620398	-1
8636.75	100	1	0	1	2	2	90	2	2	3	1	22.5	157.5	-2.07607535188231	0.780164586621158	0.266666666666667	0	0	0	84.4060493065044	84.5060068592429	0.0999575527384877	0.266710162395611
8707.5	100	2	0	2	2	2	90	2	2	3	1	112.5	157.5	-2.5013446560369	1.57297738170939	0.183333333333333	0	0	0	84.6893629033584	84.7893511762377	0.0999882728792727	0.183356044115499
8803.5	100	3	0	3	2	2	90	2	2	3	2	157.5	112.5	-2.24914506421625	-3.039080624601	0.283333333333333	0	0	0	85.0727057331242	85.1726862040814	0.0999804709572345	0.283354556886479
8866	100	4	0	4	2	2	90	2	2	0	2	157.5	112.5	1.00467234601366	-1.96295512815278	0.15	0	0	0	85.3227210321929	85.4226968707517	0.0999758385587484	0.150034828111529
8966	100	5	0	5	2	2	90	2	2	0	2	67.5	22.5	-1.32880724971669	-1.60105681579582	0.3	0	0	0	85.7227248356212	85.8227018930484	0.0999770574271679	0.300027964869514
9053.5	100	6	0	6	2	2	90	2	2	0	1	112.5	67.5	-2.11031374408562	-0.826779019909992	0.25	0	0	0	86.0727308455389	86.1727110724896	0.09998022695072	0.250028952490538
9111.75	100	7	0	7	2	2	90	2	2	0	2	67.5	112.5	-1.020509510523	1.57452526622682	0.133333333333333	0	0	0	86.3060754186008	86.406052476028	0.0999770574271679	0.133364346111193
9195.25	100	8	0	8	2	2	90	2	2	0	1	22.5	157.5	0.0115897329128449	-1.12081654910112	0.233333333333333	0	0	0	86.6394153346773	86.7393953178544	0.099979983177036	0.233362858649343
9249.25	100	9	0	9	2	2	90	2	2	0	1	112.5	157.5	-1.0657710565976	-0.552010094785906	0.116666666666667	0	0	0	86.8560886939522	86.956074528629	0.0999858346767724	0.116693376097828
9328.5	100	10	0	10	2	2	90	2	2	0	2	157.5	22.5	1.05357046609815	-0.329173180075685	0.216666666666667	0	0	0	87.1727651983965	87.2727503015194	0.09998510312289	0.216690669767559
9378.5	100	11	0	11	2	2	90	2	2	0	1	22.5	67.5	-0.267933244475339	-2.76890719925808	0.1	0	0	0	87.3727746580262	87.4727531785611	0.0999785205349326	0.100024356506765
9436.75	100	12	0	12	2	2	90	2	2	0	1	22.5	67.5	-3.03670346314496	2.58342112331054	0.133333333333333	0	0	0	87.6061097225174	87.706099945819	0.0999902233015746	0.133356543956324
9486.75	100	13	0	13	2	2	90	2	2	0	1	112.5	67.5	-0.494946284912779	0.760061144599905	0.1	0	0	0	87.8061267405283	87.9061101370025	0.099983396474272	0.100026794709265
9536.75	100	14	0	14	2	2	90	2	2	0	2	67.5	22.5	2.65545066126499	-0.317950352726445	0.1	0	0	0	88.0061354688369	88.1068088465836	0.100673377746716	0.100025331834331
9628.5	100	15	0	15	2	2	90	2	2	0	2	67.5	112.5	-2.01892126104983	1.13892963392899	0.266666666666667	0	0	0	88.3728063532617	88.472792431945	0.0999860786832869	0.265997506678104
9695.25	100	16	0	16	2	2	90	2	2	0	1	22.5	157.5	-1.01767481209808	-2.32544694811819	0.166666666666667	0	0	0	88.6394753118511	88.7394635844976	0.0999882726464421	0.166682879906148
9770.25	100	17	0	17	2	2	90	2	2	0	1	22.5	157.5	-0.314313496007337	-2.23592580872989	0.2	0	0	0	88.939508640673	89.0394666809589	0.0999580402858555	0.200045056175441
9845.25	100	18	0	18	2	2	90	2	2	0	2	67.5	22.5	-0.53683513768204	1.14130767703385	0.2	0	0	0	89.2394958892837	89.3394751411397	0.0999792518559843	0.20002920832485
9907.75	100	19	0	19	2	2	90	2	2	0	1	112.5	67.5	0.266668305557265	2.46435087381256	0.15	0	0	0	89.4895070437342	89.5894841011614	0.0999770574271679	0.150031902594492
9982.75	100	20	0	20	2	2	90	2	2	0	2	157.5	112.5	-2.0288093994787	-2.80609086106352	0.2	0	0	0	89.7895150161348	89.889499144163	0.0999841280281544	0.200030914973468
10066	100	21	0	21	2	2	90	2	2	0	2	157.5	112.5	0.612356196091694	2.93293851988176	0.233333333333333	0	0	0	90.122852250468	90.2228400355671	0.0999877850990742	0.233353106305003
10124.25	100	22	0	22	2	2	90	2	2	3	2	67.5	22.5	0.125503087215568	2.93853201589289	0.133333333333333	0	0	0	90.3562241301406	90.4561997249257	0.0999755947850645	0.133384094573557
10186.75	100	23	0	23	2	2	90	2	2	3	1	22.5	157.5	2.91375935769874	2.68991571818772	0.15	0	0	0	90.6062011511531	90.7061735761818	0.0999724250286818	0.150001426227391
10270.25	100	24	0	24	2	2	90	2	2	3	2	157.5	112.5	2.71459251281343	1.84733202276372	0.233333333333333	0	0	0	90.9395308273379	91.0395132487174	0.0999824213795364	0.233357251156121
10341	100	25	0	25	2	2	90	2	2	1	-1	90	135	-2.2219121437246	1.61373930749073	0.183333333333333	0	0	0	91.2228675861843	91.3228509826586	0.099983396474272	0.183354337466881
10395.25	100	26	0	26	2	2	90	2	2	3	2	67.5	112.5	-1.68314670717549	-2.96058083700372	0.116666666666667	0	0	0	91.4395411892328	91.5395270239096	0.0999858346767724	0.116690206574276
10486.75	100	27	0	27	2	2	90	2	2	3	1	112.5	67.5	-2.87085198294744	0.993326389874236	0.266666666666667	0	0	0	91.8062171938363	91.906198883662	0.099981689825654	0.266690169926733
10536.75	100	28	0	28	2	2	90	2	2	3	1	22.5	67.5	-0.765539624893804	3.10761167310971	0.1	0	0	0	92.0062259221449	92.1062073681969	0.0999814460519701	0.100027038482949
10616	100	29	0	29	2	2	90	2	2	3	1	112.5	157.5	1.61595944287932	-1.92153504069153	0.216666666666667	0	0	0	92.3228997446131	92.4228831413202	0.0999833967071027	0.216692376416177
10703.5	100	30	0	30	2	2	90	2	2	0	1	22.5	157.5	-2.71527882157996	0.250227131909609	0.25	0	0	0	92.6729116060305	92.7728915892076	0.099979983177036	0.25002846471034
10799.25	100	31	0	31	2	2	90	2	2	0	1	22.5	67.5	0.5709120967414	-0.895119703408681	0.283333333333333	0	0	0	93.0562537042424	93.156236856943	0.0999831527005881	0.283362115034834
10878.5	100	32	0	32	2	2	90	2	2	0	1	22.5	157.5	-0.303444137107392	0.848883876424415	0.216666666666667	0	0	0	93.3729287458118	93.4729138489347	0.09998510312289	0.216691888868809
10949.25	100	33	0	33	2	2	90	2	2	0	2	157.5	112.5	3.02157272314701	0.815334727665026	0.183333333333333	0	0	0	93.6562684304081	93.7562489011325	0.0999804707244039	0.183354581473395
11028.5	100	34	0	34	2	2	90	2	2	0	2	67.5	112.5	2.04035547426451	-1.93024050400357	0.216666666666667	0	0	0	93.9729551747441	94.072938083671	0.0999829089269042	0.216706273611635
11111.75	100	35	0	35	2	2	90	2	2	0	1	112.5	67.5	2.76459706404347	0.9957917579179	0.233333333333333	0	0	0	94.3062999672256	94.4062955542468	0.0999955870211124	0.233361883554608
11203.5	100	36	0	36	2	2	90	2	2	0	2	157.5	112.5	1.29406002838507	-2.45964906019605	0.266666666666667	0	0	0	94.6729630497284	94.7729491281789	0.0999860784504563	0.26666749548167
11257.75	100	37	0	37	2	2	90	2	2	0	2	67.5	112.5	1.30367552692259	-1.61784954260133	0.116666666666667	0	0	0	94.8896390909795	94.989623706555	0.0999846155755222	0.116689962800592
11316	100	38	0	38	2	2	90	2	2	0	2	67.5	22.5	-2.52825334119188	1.60964085901602	0.133333333333333	0	0	0	95.1229836638086	95.2229631594382	0.0999794956296682	0.13335995725356
11366	100	39	0	39	2	2	90	2	2	0	1	112.5	157.5	-1.13490174274007	1.96165653028869	0.1	0	0	0	95.3229823959991	95.4229660364799	0.0999836404807866	0.100019236560911
11441	100	40	0	40	2	2	90	2	2	0	1	22.5	67.5	0.961288284416576	-0.942863556717644	0.2	0	0	0	95.6229928068351	95.7229742528871	0.0999814460519701	0.20002677035518
11528.5	100	41	0	41	2	2	90	2	2	0	2	67.5	112.5	-0.319076367227616	-0.718733664651494	0.25	0	0	0	95.9730019862764	96.0729839198757	0.0999819335993379	0.250027733389288
11624.25	100	42	0	42	2	2	90	2	2	0	2	157.5	112.5	-0.290563454295595	1.34889217238979	0.283333333333333	0	0	0	96.3563816312235	96.4563296753913	0.0999480441678315	0.283397711347789
11707.75	100	43	0	43	2	2	90	2	2	0	1	22.5	67.5	2.72118501392494	0.636248190324638	0.233333333333333	0	0	0	96.6896896082908	96.7896683725994	0.0999787643086165	0.233359932899475
11807.75	100	44	0	44	2	2	90	2	2	3	2	67.5	112.5	-1.14630079810812	1.65516926824563	0.3	0	0	0	97.0896980441175	97.1896794901695	0.0999814460519701	0.300029671518132
11870.25	100	45	0	45	2	2	90	2	2	3	1	112.5	67.5	-1.49181219589954	2.09087411022604	0.15	0	0	0	97.3397065165918	97.4396899130661	0.099983396474272	0.150027026422322
11936.75	100	46	0	46	2	2	90	2	2	3	2	157.5	112.5	2.68167426812899	-2.92285729612895	0.166666666666667	0	0	0	97.6063749874011	97.7063605783042	0.0999855909030885	0.166685074334964
11991	100	47	0	47	2	2	90	2	2	2	-1	135	90	-0.95534577967475	-1.52457105815901	0.116666666666667	0	0	0	97.8230495655444	97.9230273545254	0.0999777889810503	0.116688987240195
12070.25	100	48	0	48	2	2	90	2	2	3	1	112.5	157.5	3.03489868065176	1.94041145707756	0.216666666666667	0	0	0	98.1397209500428	98.239705809392	0.0999848593492061	0.216693595517427
12145.25	100	49	0	49	2	2	90	2	2	3	1	22.5	67.5	-0.453673438580895	1.25016663775297	0.2	0	0	0	98.4397330672946	98.5397128066979	0.0999797394033521	0.200027257902548
12232.75	100	50	0	50	2	2	90	2	2	3	2	157.5	22.5	1.53153329713491	-0.603670480815738	0.25	0	0	0	98.789742734516	98.8897275938652	0.0999848593492061	0.250029927818105
12303.5	100	51	0	51	2	2	90	2	2	3	1	22.5	157.5	2.12573492698897	1.99383213010589	0.183333333333333	0	0	0	99.073084857082	99.1730704479851	0.0999855909030885	0.183357263216749
12378.5	100	52	0	52	2	2	90	2	2	0	1	112.5	157.5	2.00323052082228	-0.242033531133775	0.2	0	0	0	99.3730891724117	99.4730757386424	0.0999865662306547	0.200018724426627
12436.75	100	53	0	53	2	2	90	2	2	0	1	112.5	67.5	1.24925234762785	-2.94309199558817	0.133333333333333	0	0	0	99.606432038825	99.706412022002	0.099979983177036	0.133356300182641
12499.25	100	54	0	54	2	2	90	2	2	0	1	22.5	67.5	-1.45702776456592	-2.10340302695247	0.15	0	0	0	99.8564358789008	99.9564236639999	0.0999877850990742	0.15002385689877
12595.25	100	55	0	55	2	2	90	2	2	0	1	112.5	67.5	0.887466643804157	0.462677451110407	0.283333333333333	0	0	0	100.239789923886	100.339790387079	0.100000463193282	0.283366259885952
12691	100	56	0	56	2	2	90	2	2	0	1	22.5	157.5	2.56758722580117	2.21990908221411	0.283333333333333	0	0	0	100.623138604918	100.723113955697	0.0999753507785499	0.283348217839375
12778.5	100	57	0	57	2	2	90	2	2	0	1	112.5	157.5	2.88125692357882	0.669540583974536	0.25	0	0	0	100.973135350039	101.073112651473	0.0999773014336824	0.250021394342184
12832.75	100	58	0	58	2	2	90	2	2	0	2	157.5	22.5	-2.45169620388677	-2.44922294305731	0.116666666666667	0	0	0	101.189808221767	101.28978796117	0.0999797394033521	0.116695570293814
12899.5	100	59	0	59	2	2	90	2	2	0	2	67.5	22.5	0.908618314263402	-3.0276238222768	0.166666666666667	0	0	0	101.456478155451	101.556463502347	0.0999853468965739	0.166690194280818
12987	100	60	0	60	2	2	90	2	2	0	1	22.5	67.5	-0.254785786852752	2.5463948297731	0.25	0	0	0	101.806495136814	101.906490967609	0.0999958307947963	0.250031634466723
13066	100	61	0	61	2	2	90	2	2	0	1	112.5	67.5	0.405711312078651	2.19818511195442	0.216666666666667	0	0	0	102.123177736299	102.22316430253	0.0999865662306547	0.216686768690124
13120.25	100	62	0	62	2	2	90	2	2	0	1	112.5	67.5	-0.0672489232426008	-1.42118052284295	0.116666666666667	0	0	0	102.339846219402	102.439835467376	0.0999892479740083	0.116681916872039
13170.25	100	63	0	63	2	2	90	2	2	0	2	157.5	22.5	1.55467980012613	-2.00849972768731	0.1	0	0	0	102.539857142139	102.639835174894	0.0999780327547342	0.100021674763411
13228.5	100	64	0	64	2	2	90	2	2	0	2	157.5	112.5	0.0551281871834628	2.86578965764128	0.133333333333333	0	0	0	102.773213417968	102.873164387885	0.0999509699176997	0.133378243073821
13291	100	65	0	65	2	2	90	2	2	0	1	22.5	157.5	-2.26631296211793	-1.39268390238345	0.15	0	0	0	103.023189463653	103.123173347907	0.0999838842544705	0.150025075767189
13353.5	100	66	0	66	2	2	90	2	2	0	2	157.5	22.5	-2.52694694729784	2.07314544596184	0.15	0	0	0	103.273195010377	103.373176700203	0.099981689825654	0.150021662469953
13420.25	100	67	0	67	2	2	90	2	2	0	2	67.5	112.5	-2.56327655907308	0.887772303168225	0.166666666666667	0	0	0	103.539878841257	103.639854192035	0.0999753507785499	0.166702141053975
13520.25	100	68	0	68	2	2	90	2	2	0	2	157.5	112.5	-0.964159059876818	2.61684232460062	0.3	0	0	0	103.939884351334	104.039865553612	0.0999812022782862	0.300030159298331
13591	100	69	0	69	2	2	90	2	2	0	2	157.5	22.5	-2.10540343748021	-1.06058439862804	0.183333333333333	0	0	0	104.223225986352	104.323204994202	0.0999790078494698	0.183360432740301
13691	100	70	0	70	2	2	90	2	2	0	1	22.5	157.5	0.53779965105972	-0.762911286558329	0.3	0	0	0	104.623260265915	104.723242199514	0.0999819335993379	0.300055271713063
13762	100	71	0	71	2	2	90	2	2	0	1	112.5	67.5	0.640768200827646	1.78703146394893	0.183333333333333	0	0	0	104.906578251394	105.006557015702	0.0999787643086165	0.183336051879451
13845.25	100	72	0	72	2	2	90	2	2	0	2	157.5	22.5	-1.08184835626183	-1.17235718672534	0.233333333333333	0	0	0	105.239916217048	105.339895956684	0.0999797396361828	0.233359201345593
13932.75	100	73	0	73	2	2	90	2	2	0	2	157.5	112.5	0.592286640209093	2.4917018442993	0.25	0	0	0	105.589923446067	105.68990367325	0.0999802271835506	0.250027489382774
14032.75	100	74	0	74	2	2	90	2	2	0	1	22.5	67.5	-0.445379234105242	3.07987754090924	0.3	0	0	0	105.989935782971	106.089915766148	0.099979983177036	0.300032109720632
14120.25	100	75	0	75	2	2	90	2	2	0	2	67.5	22.5	-0.236301845525415	-1.92553533505438	0.25	0	0	0	106.339944474632	106.439926896011	0.0999824213795364	0.250028708484024
14182.75	100	76	0	76	2	2	90	2	2	0	1	112.5	157.5	1.07386652126664	2.98730571564312	0.15	0	0	0	106.589950996684	106.689960968448	0.100009971763939	0.150024100672454
14232.75	100	77	0	77	2	2	90	2	2	0	1	22.5	157.5	-0.840957160053157	-0.746914053436786	0.1	0	0	0	106.789967526915	106.889971159631	0.100003632716835	0.100006558466703
14328.5	100	78	0	78	2	2	90	2	2	0	2	67.5	22.5	-2.96364292053828	-0.220093227410565	0.283333333333333	0	0	0	107.173300116556	107.273280831287	0.0999807147309184	0.283328956924379
14403.5	100	79	0	79	2	2	90	2	2	0	2	67.5	112.5	0.942026982323223	2.34821364796332	0.2	0	0	0	107.473306382541	107.573287828593	0.0999814460519701	0.20002555125393
14466	100	80	0	80	2	2	90	2	2	0	2	67.5	22.5	-2.55087684414518	-1.42704918045733	0.15	0	0	0	107.72331290436	107.823296301067	0.0999833967071027	0.150025075767189
14562	100	81	0	81	2	2	90	2	2	0	2	157.5	22.5	-0.624386448521695	0.916128050511666	0.283333333333333	0	0	0	108.106669387547	108.206654734444	0.0999853468965739	0.283373086480424
14616	100	82	0	82	2	2	90	2	2	0	2	67.5	22.5	1.49060883492666	-3.1064366969217	0.116666666666667	0	0	0	108.323331043823	108.423312733648	0.099981689825654	0.116676309378818
14707.75	100	83	0	83	2	2	90	2	2	0	1	112.5	157.5	2.75639668977734	2.88510682566482	0.266666666666667	0	0	0	108.690013631247	108.789991176454	0.0999775452073663	0.266700897598639
14757.75	100	84	0	84	2	2	90	2	2	3	1	112.5	157.5	-0.0646165263382459	3.05971298256411	0.1	0	0	0	108.890011632117	108.989997222787	0.0999855906702578	0.100020455662161
14812	100	85	0	85	2	2	90	2	2	3	1	22.5	157.5	2.82669958404554	1.36401655807873	0.116666666666667	0	0	0	109.106690842658	109.206669606967	0.0999787643086165	0.116693619871512
14878.5	100	86	0	86	2	2	90	2	2	3	1	22.5	67.5	-2.15147853400304	0.010120681351153	0.166666666666667	0	0	0	109.373362726998	109.473342953948	0.09998022695072	0.166693120030686
14953.5	100	87	0	87	2	2	90	2	2	1	-1	90	45	-0.242977253916489	-2.96168382714512	0.2	0	0	0	109.67336948053	109.773351901677	0.0999824211467057	0.200026526581496
15024.5	100	88	0	88	2	2	90	2	2	3	2	67.5	112.5	-1.88149981381296	0.323088003503766	0.183333333333333	0	0	0	109.956752806902	110.056703045499	0.099950238596648	0.183400905225426
15103.5	100	89	0	89	2	2	90	2	2	3	2	157.5	22.5	0.253721302438223	-1.3098002279575	0.216666666666667	0	0	0	110.273397128563	110.373383207014	0.0999860784504563	0.216694083064795
15166	100	90	0	90	2	2	90	2	2	3	2	67.5	22.5	2.35746702878831	0.79226940827134	0.15	1	0.841977237490937	1	110.523402187508	110.623385340208	0.0999831527005881	0.150018980493769
15262	100	91	0	91	2	2	90	2	2	3	1	112.5	67.5	-3.08628455659059	0.357800966723195	0.283333333333333	0	0	0	110.906746967696	111.006725731771	0.0999787640757859	0.283361627487466
15316	100	92	0	92	2	2	90	2	2	0	1	22.5	67.5	1.10311125645089	-1.74505526723963	0.116666666666667	0	0	0	111.123418376548	111.223389094928	0.0999707183800638	0.116692644776776
15387	100	93	0	93	2	2	90	2	2	0	2	67.5	112.5	0.207788062634954	1.16646842191095	0.183333333333333	0	0	0	111.40674782102	111.506732192822	0.0999843718018383	0.183358726091683
15482.75	100	94	0	94	2	2	90	2	2	0	2	67.5	112.5	1.23324275995034	-2.14717767166807	0.283333333333333	0	0	0	111.79008260509	111.890102085425	0.100019480334595	0.283350412268192
15582.75	100	95	0	95	2	2	90	2	2	0	2	67.5	112.5	-2.00576889862961	2.40848854690698	0.3	0	0	0	112.19011200848	112.290097599383	0.0999855909030885	0.300009923055768
15666	100	96	0	96	2	2	90	2	2	0	1	112.5	157.5	1.6655386578168	-3.01252099832997	0.233333333333333	0	0	0	112.523475818103	112.623435321264	0.0999595031607896	0.233378218719736
15745.25	100	97	0	97	2	2	90	2	2	0	2	67.5	22.5	-0.992258173951813	-1.62582234463852	0.216666666666667	0	0	0	112.840126722353	112.940103292232	0.0999765698798001	0.21669140108861
15799.5	100	98	0	98	2	2	90	2	2	0	1	22.5	157.5	0.348091739633404	-3.07499641840082	0.116666666666667	0	0	0	113.056792767253	113.156771775335	0.0999790080823004	0.116689475020394
15866	100	99	0	99	2	2	90	2	2	0	1	112.5	67.5	1.86866840709089	-2.14702180849878	0.166666666666667	0	0	0	113.323477085913	113.423483888153	0.100006802240387	0.166705310577527
15932.75	100	100	0	100	2	2	90	2	2	0	1	22.5	67.5	-0.00288081508493976	-1.21562123055906	0.166666666666667	0	0	0	113.590166524285	113.690151383635	0.0999848593492061	0.166682636132464
16007.75	100	101	0	101	2	2	90	2	2	0	2	157.5	22.5	2.28747321648894	-1.27723734253789	0.2	0	0	0	113.890182542615	113.990160575369	0.0999780327547342	0.200031158979982
16074.5	100	102	0	102	2	2	90	2	2	0	2	157.5	112.5	1.33434839755061	2.27281061380723	0.166666666666667	0	0	0	114.156845405931	114.256829289952	0.0999838840216398	0.16668483056128
16145.25	100	103	0	103	2	2	90	2	2	0	1	112.5	157.5	1.17838109390457	-1.08485333784392	0.183333333333333	0	0	0	114.440165585605	114.540145812556	0.09998022695072	0.183336295653135
16224.5	100	104	0	104	2	2	90	2	2	0	2	157.5	112.5	0.71884963143167	-0.95350200560524	0.216666666666667	0	0	0	114.756836970104	114.856820366578	0.099983396474272	0.216691157547757
16278.5	100	105	0	105	2	2	90	2	2	0	2	157.5	112.5	1.59957251137367	-2.66743364726232	0.116666666666667	0	0	0	114.973511792021	115.073501039995	0.0999892479740083	0.116691425442696
16357.75	100	106	0	106	2	2	90	2	2	0	1	112.5	157.5	-3.02954897980009	-0.0829184367584928	0.216666666666667	0	0	0	115.290184395621	115.390172668267	0.0999882726464421	0.216683355625719
16437	100	107	0	107	2	2	90	2	2	0	1	22.5	67.5	0.138306699902714	0.323475436774223	0.216666666666667	0	0	0	115.606861387612	115.706841858337	0.0999804707244039	0.216688719345257
16503.75	100	108	0	108	2	2	90	2	2	0	1	112.5	157.5	0.491633864433215	2.80821648232313	0.166666666666667	0	0	0	115.873540098313	115.973516180646	0.0999760823324323	0.16669823997654
16595.25	100	109	0	109	2	2	90	2	2	0	1	22.5	157.5	-1.67160350938105	-1.18883123874745	0.266666666666667	0	0	0	116.240215859143	116.340194135671	0.0999782765284181	0.266699678497389
16645.25	100	110	0	110	2	2	90	2	2	0	2	157.5	112.5	-1.33674445669774	0.736593955332061	0.1	0	0	0	116.44021434756	116.540200182237	0.0999858346767724	0.100020211888477
16703.75	100	111	0	111	2	2	90	2	2	0	1	22.5	157.5	0.0179364120787082	0.71408485984306	0.133333333333333	0	0	0	116.673556726193	116.773539147573	0.0999824213795364	0.133356543956324
16766.25	100	112	0	112	2	2	90	2	2	0	2	67.5	112.5	-1.47244713218446	0.514553012862586	0.15	0	0	0	116.923561541364	117.023544206517	0.0999826651532203	0.150022393791005
16853.75	100	113	0	113	2	2	90	2	2	0	2	157.5	22.5	-0.8396825035748	-2.03675411552709	0.25	0	0	0	117.273572915234	117.373556799255	0.0999838840216398	0.250028708716854
16945.25	100	114	0	114	2	2	90	2	2	0	1	22.5	67.5	0.778499045373982	1.12311983257412	0.266666666666667	0	0	0	117.640273788245	117.740228415467	0.0999546272214502	0.266716988990083
17045.25	100	115	0	115	2	2	90	2	2	0	1	112.5	157.5	1.53351117469751	-0.980875089493122	0.3	0	0	0	118.040259306086	118.140241483459	0.0999821773730218	0.300030890619382
17116.25	100	116	0	116	2	2	90	2	2	0	1	22.5	67.5	-2.19432885458505	1.0088136294949	0.183333333333333	0	0	0	118.323605573503	118.423585312907	0.0999797394033521	0.183364090044051
17174.5	100	117	0	117	2	2	90	2	2	0	2	157.5	22.5	1.27552839673931	-2.22143944721908	0.133333333333333	0	0	0	118.556982816895	118.656924034469	0.0999412175733596	0.133397503988817
17274.5	100	118	0	118	2	2	90	2	2	0	1	112.5	67.5	-2.70685698584055	2.8280629415596	0.3	0	0	0	118.956990277395	119.056934908265	0.0999446308705956	0.300066242925823
17332.75	100	119	0	119	2	2	90	2	2	0	1	112.5	157.5	-2.66154960304135	0.758920101441154	0.133333333333333	0	0	0	119.190289745573	119.290273873601	0.0999841280281544	0.133354837307706
17420.25	100	120	0	120	2	2	90	2	2	3	1	22.5	67.5	-2.63081125867437	-1.06721652613527	0.25	0	0	0	119.540320624132	119.64028695412	0.0999663299880922	0.250046750530601
17487	100	121	0	121	2	2	90	2	2	3	2	157.5	112.5	2.41117043545728	-2.90693151816934	0.166666666666667	0	0	0	119.806974466424	119.906957375351	0.0999829089269042	0.166687512304634
17570.25	100	122	0	122	2	2	90	2	2	3	1	112.5	157.5	-2.23072126866991	-2.14134258645969	0.233333333333333	0	0	0	120.140316089382	120.240298022982	0.0999819335993379	0.233358714031056
17628.75	100	123	0	123	2	2	90	2	2	2	-1	135	90	-2.49309907236976	-2.99542568311375	0.133333333333333	0	0	0	120.373657005141	120.473637232091	0.09998022695072	0.133358982158825
17703.75	100	124	0	124	2	2	90	2	2	3	1	112.5	67.5	0.693679367330288	-0.594051569641164	0.2	0	0	0	120.673662783345	120.773650080897	0.0999872975517064	0.20002555125393
17774.5	100	125	0	125	2	2	90	2	2	3	2	157.5	22.5	-1.7735725830462	-0.949644022584304	0.183333333333333	0	0	0	120.957005393691	121.056992935017	0.0999875413253903	0.183355312794447
17874.5	100	126	0	126	2	2	90	2	2	3	2	67.5	22.5	-2.82850787653445	-1.36427060788568	0.3	0	0	0	121.357055520872	121.457000151742	0.0999446308705956	0.300062585854903
17928.75	100	127	0	127	2	2	90	2	2	3	2	67.5	112.5	0.443241045569128	-1.03053581128174	0.116666666666667	0	0	0	121.573690358317	121.673667903291	0.0999775449745357	0.116690206574276
18012	100	128	0	128	2	2	90	2	2	0	2	67.5	112.5	2.42639255117079	-3.13213704450034	0.233333333333333	0	0	0	121.907034419244	122.007022691891	0.0999882726464421	0.233366515953094
18103.75	100	129	0	129	2	2	90	2	2	0	1	112.5	67.5	0.0682498925723509	-1.99941544869443	0.266666666666667	0	0	0	122.273716762895	122.373701622244	0.0999848593492061	0.266694071004167
18187	100	130	0	130	2	2	90	2	2	0	2	67.5	22.5	2.4372438208994	-2.56125885440999	0.233333333333333	0	0	0	122.607064724667	122.707040806999	0.0999760823324323	0.233363102423027
18278.75	100	131	0	131	2	2	90	2	2	0	2	157.5	22.5	0.525657707544844	1.43842935186614	0.266666666666667	0	0	0	122.973739266396	123.073727051727	0.0999877853319049	0.266698459396139
18328.75	100	132	0	132	2	2	90	2	2	0	2	67.5	112.5	-2.1491364337039	2.27130289964997	0.1	0	0	0	123.173744825413	123.273729197215	0.0999843718018383	0.100017773685977
18424.5	100	133	0	133	2	2	90	2	2	0	1	112.5	157.5	1.97932795603488	-0.241606202492803	0.283333333333333	0	0	0	123.557121788384	123.657095676288	0.0999738879036158	0.283392591169104
18524.5	100	134	0	134	2	2	90	2	2	0	2	157.5	22.5	-1.30938465669616	-2.96728176711843	0.3	0	0	0	123.957129248884	124.057124348357	0.0999950994737446	0.300033572595567
18616.25	100	135	0	135	2	2	90	2	2	0	2	67.5	22.5	1.77384091134342	2.50131425835122	0.266666666666667	0	0	0	124.323777946876	124.423758905381	0.0999809585046023	0.266653598519042
18691.25	100	136	0	136	2	2	90	2	2	0	1	112.5	67.5	1.171139450457	-2.13968267728551	0.2	0	0	0	124.623781530885	124.723765171366	0.0999836404807866	0.200022625504062
18762	100	137	0	137	2	2	90	2	2	0	1	22.5	157.5	1.30921966548425	-2.09853944930943	0.183333333333333	0	0	0	124.907124141231	125.007104124408	0.099979983177036	0.183358969865367
18828.75	100	138	0	138	2	2	90	2	2	0	2	157.5	22.5	2.47080610058851	2.62295636011577	0.166666666666667	0	0	0	125.173800413962	125.273793075234	0.0999926612712443	0.166696289554238
18899.5	100	139	0	139	2	2	90	2	2	0	2	67.5	22.5	-2.28312483964292	2.97745862498546	0.183333333333333	0	0	0	125.457140342332	125.557119594188	0.0999792518559843	0.183347267098725
18957.75	100	140	0	140	2	2	90	2	2	3	2	67.5	112.5	-1.1750459443176	-0.762965374211993	0.133333333333333	0	0	0	125.690473699942	125.79046075372	0.0999870537780225	0.133354105753824
19032.75	100	141	0	141	2	2	90	2	2	3	1	22.5	67.5	0.950075547968629	-1.21055515154671	0.2	0	0	0	125.990485573653	126.090467507252	0.0999819335993379	0.200024819932878
19099.5	100	142	0	142	2	2	90	2	2	3	1	112.5	67.5	1.23859216299631	-1.47011936035359	0.166666666666667	0	0	0	126.257157701533	126.357146949507	0.0999892479740083	0.166690194280818
19153.75	100	143	0	143	2	2	90	2	2	3	2	67.5	22.5	-2.10713474771518	-1.99660888167589	0.116666666666667	0	0	0	126.473832767457	126.573815676384	0.0999829089269042	0.116685817949474
24795.5	100	144	1	0	1	2	0	1	1	3	2	157.5	22.5	2.51186093025929	-0.0856417287582198	0.2	0	0	0	149.041114590131	149.141089453362	0.0999748632311821	-1
24870.5	100	145	1	1	1	2	0	1	1	3	1	112.5	67.5	3.07952601407654	-2.26888910216055	0.2	0	0	0	149.341134997085	149.441099863965	0.0999648668803275	0.200045543722808
24945.5	100	146	1	2	1	2	0	1	1	3	1	22.5	67.5	0.855461418981825	2.69716478337107	0.2	0	0	0	149.641125171445	149.741107349051	0.0999821776058525	0.200025307480246
25020.5	100	147	1	3	1	2	0	1	1	3	2	67.5	22.5	-1.35308291489756	0.422401827755907	0.2	0	0	0	149.94112558593	150.041099961614	0.0999743756838143	0.200018236879259
25095.5	100	148	1	4	1	2	0	1	1	0	2	67.5	112.5	-0.186219457241102	-2.99760309241043	0.2	0	0	0	150.24116891087	150.341124513187	0.0999556023161858	0.200068949256092
25170.5	100	149	1	5	1	2	0	1	1	0	2	67.5	112.5	-1.30897537662758	-0.476466163311244	0.2	0	0	0	150.541149089113	150.641151259188	0.100002170074731	0.200024575926363
25245.5	100	150	1	6	1	2	0	1	1	0	1	112.5	67.5	-1.8541758517933	-1.5716025972794	0.2	0	0	0	150.841176566668	150.941161669791	0.09998510312289	0.200025307480246
25320.5	100	151	1	7	1	2	0	1	1	0	2	157.5	112.5	2.15705263498046	2.75790123259244	0.2	0	0	0	151.141164546832	151.241147455759	0.0999829089269042	0.200002877041698
25395.5	100	152	1	8	1	2	0	1	1	0	1	22.5	67.5	2.29031823073994	2.49976656838419	0.2	0	0	0	151.441174713662	151.541151771089	0.0999770574271679	0.200027257902548
25470.5	100	153	1	9	1	2	0	1	1	0	1	22.5	67.5	2.13546695264015	1.12878987653437	0.2	0	0	0	151.741181710968	151.841165351216	0.0999836402479559	0.200029939878732
25545.5	100	154	1	10	1	2	0	1	1	0	2	67.5	22.5	-0.0823616038180006	0.153158419725442	0.2	0	0	0	152.041185294976	152.141170398099	0.09998510312289	0.200019943760708
25620.5	100	155	1	11	1	2	0	1	1	0	1	22.5	157.5	1.28193100276381	-2.73634522887946	0.2	0	0	0	152.341196680907	152.441184222233	0.0999875413253903	0.200026282807812
25695.5	100	156	1	12	1	2	0	1	1	0	2	67.5	22.5	-2.17044534456704	-3.04495984315238	0.2	0	0	0	152.64120416576	152.741185611812	0.0999814460519701	0.200019943527877
25770.5	100	157	1	13	1	2	0	1	1	0	1	22.5	157.5	2.70065921486299	-1.94389729023319	0.2	0	0	0	152.941211650847	153.041193340672	0.099981689825654	0.200026039034128
25845.5	100	158	1	14	1	2	0	1	1	0	1	22.5	157.5	-3.09552037604942	0.840853852611475	0.2	0	0	0	153.241222548997	153.3412022884	0.0999797394033521	0.20002920832485
25920.5	100	159	1	15	1	2	0	1	1	0	2	67.5	112.5	2.77078271033792	0.192134532743353	0.2	0	0	0	153.541228571208	153.641208310612	0.0999797394033521	0.200026282807812
25995.5	100	160	1	16	1	2	0	1	1	0	2	157.5	22.5	0.991340702229354	2.40982264926006	0.2	0	0	0	153.841235568514	153.94121725834	0.099981689825654	0.200027257902548
26070.5	100	161	1	17	1	2	0	1	1	0	2	157.5	22.5	-2.55455245769364	3.13567981630838	0.2	0	0	0	154.141245247796	154.241234008223	0.0999887604266405	0.20002798945643
26145.5	100	162	1	18	1	2	0	1	1	0	1	112.5	67.5	-2.69783102105659	3.10748261708625	0.2	0	0	0	154.441253951751	154.541237104451	0.0999831527005881	0.200019943527877
26220.5	100	163	1	19	1	2	0	1	1	0	1	22.5	67.5	1.16204419405988	1.85065778802386	0.2	0	0	0	154.741262168158	154.841242882889	0.0999807147309184	0.200025063706562
26295.5	100	164	1	20	1	2	0	1	1	0	1	22.5	157.5	0.728828166596267	-2.92376377466974	0.2	0	0	0	155.041268677916	155.141250855289	0.0999821773730218	0.200025795027614
26370.5	100	165	1	21	1	2	0	1	1	0	2	157.5	112.5	-0.271606498395835	-1.70491583889948	0.2	0	0	0	155.34127616277	155.441263460321	0.0999872975517064	0.200025307480246
26445.5	100	166	1	22	1	2	0	1	1	0	1	22.5	67.5	-1.37316404742197	0.699939674198121	0.2	0	0	0	155.641285110498	155.741270701401	0.0999855909030885	0.200021650176495
26520.5	100	167	1	23	1	2	0	1	1	0	2	67.5	112.5	-0.374109043721248	1.65081538611914	0.2	0	0	0	155.94129478978	156.041275992058	0.0999812022782862	0.200024088378996
26595.5	100	168	1	24	1	2	0	1	1	0	2	157.5	22.5	1.766846198495	-2.40754671910304	0.2	0	0	0	156.241309345234	156.341286646668	0.0999773014336824	0.200033353175968
26670.5	100	169	1	25	1	2	0	1	1	0	1	112.5	67.5	-0.661319424991749	-0.686688216187449	0.2	0	0	0	156.541310247267	156.641290230677	0.0999799834098667	0.200023600598797
26745.5	100	170	1	26	1	2	0	1	1	0	2	67.5	22.5	2.3727009647596	-1.79698071022771	0.2	0	0	0	156.841315538157	156.941325509921	0.100009971763939	0.200025307480246
26820.5	100	171	1	27	1	2	0	1	1	0	1	112.5	157.5	-2.51778488160825	1.66253393309801	0.2	0	0	0	157.141327899182	157.24131739093	0.0999894917476922	0.200002389261499
26895.5	100	172	1	28	1	2	0	1	1	0	1	112.5	67.5	2.46578842185733	1.78833288483189	0.2	0	0	0	157.441339041339	157.541318049189	0.0999790078494698	0.200021650409326
26970.5	100	173	1	29	1	2	0	1	1	0	2	157.5	112.5	-1.46795586902674	1.14247224915105	0.2	0	0	0	157.74134165002	157.841322852299	0.0999812022782862	0.200023600831628
27045.5	100	174	1	30	1	2	0	1	1	0	1	112.5	67.5	0.404197657033663	2.75205634004181	0.2	0	0	0	158.041347672231	158.141337163979	0.0999894917476922	0.200024819932878
27120.5	100	175	1	31	1	2	0	1	1	0	1	22.5	67.5	-1.32763581307578	1.48735769384417	0.2	0	0	0	158.341360521037	158.44134562416	0.09998510312289	0.200023357057944
27195.5	100	176	1	32	1	2	0	1	1	0	2	157.5	22.5	0.167428902230407	-0.335412492466736	0.2	0	0	0	158.64136800589	158.741354328115	0.0999863222241402	0.200022381730378
27270.5	100	177	1	33	1	2	0	1	1	0	2	157.5	112.5	-1.10791412039524	-0.59648658823417	0.2	0	0	0	158.941383292666	159.041361081647	0.0999777889810503	0.200028964551166
27345.5	100	178	1	34	1	2	0	1	1	0	2	67.5	112.5	-2.3249504902357	0.821011016892487	0.2	0	0	0	159.241382732056	159.341362959007	0.09998022695072	0.200021650409326
27420.5	100	179	1	35	1	2	0	1	1	0	2	67.5	22.5	-0.829120350320057	-1.91655280014512	0.2	0	0	0	159.541377295041	159.641359228641	0.0999819335993379	0.200014336034656
27495.5	100	180	1	36	1	2	0	1	1	0	2	157.5	112.5	-0.745190761329008	0.0152246397741433	0.2	0	0	0	159.841387461871	159.941370370798	0.0999829089269042	0.200028233230114
27570.5	100	181	1	37	1	2	0	1	1	0	1	112.5	157.5	1.67303196152148	-2.1328492029034	0.2	0	0	0	160.141397141153	160.241378830979	0.099981689825654	0.20002677035518
27645.5	100	182	1	38	1	2	0	1	1	0	2	67.5	112.5	2.37880767248476	-0.910465209430939	0.2	0	0	0	160.441405601334	160.54138777894	0.0999821776058525	0.20002677035518
27720.5	100	183	1	39	1	2	0	1	1	0	1	22.5	157.5	-0.460239340943078	-2.02864764581972	0.2	0	0	0	160.741411623312	160.841389900073	0.0999782767612487	0.200023844372481
27795.5	100	184	1	40	1	2	0	1	1	0	1	22.5	157.5	-2.00636577243781	0.597714875482757	0.2	0	0	0	161.0414203275	161.141397141153	0.099976813653484	0.2000304274261
27870.5	100	185	1	41	1	2	0	1	1	0	2	157.5	112.5	0.564694742214599	0.35212803708429	0.2	0	0	0	161.341428543907	161.44143802789	0.10000948398374	0.200031402753666
27945.5	100	186	1	42	1	2	0	1	1	0	1	22.5	157.5	-2.99715510501706	-0.831781663058457	0.2	0	0	0	161.641468455549	161.741445269203	0.099976813653484	0.20003042765893
28020.5	100	187	1	43	1	2	0	1	1	0	1	112.5	67.5	1.72636022732821	-1.68280253452188	0.2	0	0	0	161.941469113808	162.041439832188	0.0999707183800638	0.200023844605312
28095.5	100	188	1	44	1	2	0	1	1	3	2	157.5	112.5	-0.817878755590128	1.19119925524261	0.2	0	0	0	162.241463676794	162.341467797058	0.100004120264202	0.200023844605312
28170.5	100	189	1	45	1	2	0	1	1	3	1	112.5	157.5	-0.768861996567189	0.381311745610387	0.2	0	0	0	162.54147140542	162.641453095479	0.0999816900584847	0.200003608362749
28245.5	100	190	1	46	1	2	0	1	1	3	1	112.5	67.5	-0.0227992836133377	-2.57266921262633	0.2	0	0	0	162.841467675287	162.941446927143	0.0999792518559843	0.200014579808339
28320.5	100	191	1	47	1	2	0	1	1	1	-1	0	135	-0.902688153015386	2.57215937665276	0.2	0	0	0	163.141476623015	163.241456118645	0.0999794956296682	0.200029695872217
28395.5	100	192	1	48	1	2	0	1	1	3	1	22.5	67.5	-0.590318285899208	-2.22115519198256	0.2	0	0	0	163.441495079547	163.541463115951	0.0999680364038795	0.20003896090202
28470.5	100	193	1	49	1	2	0	1	1	3	2	67.5	22.5	-0.666237562349335	-0.57416766220082	0.2	1	0.492181879002601	1	163.741491349181	163.841474745655	0.099983396474272	0.200028233230114
28545.5	100	194	1	50	1	2	0	1	1	3	2	157.5	22.5	0.24234684976147	-1.19941514675848	0.2	0	0	0	164.041498102713	164.141483205836	0.09998510312289	0.200023357057944
28620.5	100	195	1	51	1	2	0	1	1	3	2	67.5	112.5	-2.92764440743374	2.08396970440375	0.2	0	0	0	164.341518753441	164.441504588118	0.0999858346767724	0.200035547604784
28695.5	100	196	1	52	1	2	0	1	1	0	1	22.5	67.5	2.89775379224426	1.89192494069759	0.2	0	0	0	164.641548181185	164.741508172126	0.0999599909409881	0.200043593067676
28770.5	100	197	1	53	1	2	0	1	1	0	2	67.5	112.5	1.13182191279077	-1.98005340679279	0.2	0	0	0	164.9415332356	165.041521264706	0.0999880291055888	0.200025063473731
28845.5	100	198	1	54	1	2	0	1	1	0	1	112.5	157.5	-1.08527003616826	0.987145928825057	0.2	0	0	0	165.241543158656	165.341525336262	0.0999821776058525	0.200021893950179
28920.5	100	199	1	55	1	2	0	1	1	0	2	157.5	112.5	1.81625606155162	-2.13524690254782	0.2	0	0	0	165.541551131289	165.641534771537	0.0999836402479559	0.200025795027614
28995.5	100	200	1	56	1	2	0	1	1	0	1	112.5	157.5	1.91589463260322	-1.94015238348752	0.2	0	0	0	165.841563492315	165.941546889022	0.0999833967071027	0.200028720777482
29070.5	100	201	1	57	1	2	0	1	1	0	1	22.5	157.5	2.49405710275691	2.84951046761476	0.2	0	0	0	166.14156732033	166.241549497703	0.0999821773730218	0.200020431308076
29145.5	100	202	1	58	1	2	0	1	1	0	2	157.5	22.5	-1.00132134571617	-0.240748853578958	0.2	0	0	0	166.441580168903	166.541560152313	0.0999799834098667	0.200030671199784
29220.5	100	203	1	59	1	2	0	1	1	0	2	157.5	112.5	0.146904902794936	1.69401937209067	0.2	0	0	0	166.74158545956	166.841566174291	0.0999807147309184	0.200025307247415
29295.5	100	204	1	60	1	2	0	1	1	0	2	157.5	112.5	-1.2361924819763	1.57823250273056	0.2	0	0	0	167.041596601717	167.141574390698	0.0999777889810503	0.2000304274261
29370.5	100	205	1	61	1	2	0	1	1	0	1	112.5	67.5	-0.864390366633642	2.5932897625041	0.2	0	0	0	167.341597503982	167.44158114423	0.0999836402479559	0.20002311328426
29445.5	100	206	1	62	1	2	0	1	1	0	2	67.5	22.5	0.566459724116381	2.75518419453766	0.2	0	0	0	167.641610108782	167.741610815981	0.100000707199797	0.200028964551166
29520.5	100	207	1	63	1	2	0	1	1	0	1	112.5	157.5	1.25624314668208	0.688279939151815	0.2	0	0	0	167.941639536759	168.041622201679	0.0999826649203897	0.200028720777482
29595.5	100	208	1	64	1	2	0	1	1	0	1	112.5	157.5	2.42618900487626	-2.28927540274957	0.2	0	0	0	168.241648484487	168.341615545796	0.0999670613091439	0.200026282807812
29670.5	100	209	1	65	1	2	0	1	1	0	2	67.5	22.5	2.39436299048891	-2.8379673879797	0.2	0	0	0	168.541653531371	168.64163839072	0.0999848593492061	0.200037985574454
29745.5	100	210	1	66	1	2	0	1	1	0	1	22.5	157.5	-0.0789938121383686	0.50627313976541	0.2	0	0	0	168.841640292434	168.94164611958	0.100005827145651	0.200001901714131
29820.5	100	211	1	67	1	2	0	1	1	0	1	112.5	157.5	-1.68948447780652	0.301139654113833	0.2	0	0	0	169.14167093928	169.241654335987	0.0999833967071027	0.200024819700047
29895.5	100	212	1	68	1	2	0	1	1	0	1	112.5	157.5	-1.54421806295288	-0.592400719036906	0.2	0	0	0	169.441685982281	169.541638902854	0.0999529205728322	0.200031646294519
29970.5	100	213	1	69	1	2	0	1	1	0	2	67.5	22.5	2.35713208254218	0.987262178646321	0.2	0	0	0	169.741672499804	169.841664185748	0.099991685943678	0.200033596949652
30045.5	100	214	1	70	1	2	0	1	1	0	1	22.5	67.5	0.193711447218992	1.96800810193928	0.2	0	0	0	170.041693638079	170.14166557556	0.0999719374813139	0.200029452331364
30120.5	100	215	1	71	1	2	0	1	1	0	2	157.5	22.5	-1.86122251358086	-1.83803474954962	0.2	0	0	0	170.341669915244	170.441680374788	0.100010459544137	0.200004339683801
30195.5	100	216	1	72	1	2	0	1	1	0	1	22.5	67.5	-1.51865331870067	0.43992965044951	0.2	0	0	0	170.641707632691	170.741690785391	0.0999831527005881	0.200027257902548
30270.5	100	217	1	73	1	2	0	1	1	0	2	67.5	22.5	1.04090173639475	3.0029680238083	0.2	0	0	0	170.941712435801	171.041694856947	0.0999824211467057	0.200021650409326
30345.5	100	218	1	74	1	2	0	1	1	0	1	22.5	67.5	-1.39246032178308	-3.04528598644853	0.2	0	0	0	171.241709680762	171.341690151487	0.0999804707244039	0.200014823814854
30420.5	100	219	1	75	1	2	0	1	1	0	2	67.5	22.5	0.500584121779498	1.75846629437838	0.2	0	0	0	171.541712289443	171.641701537417	0.0999892479740083	0.200022137956694
30495.75	100	220	1	76	1	2	0	1	1	3	2	67.5	112.5	1.27003629846249	1.67490605688988	0.2	0	0	0	171.841725382023	171.941706584301	0.0999812022782862	0.200023844605312
30570.75	100	221	1	77	1	2	0	1	1	3	1	112.5	157.5	-0.36199176198698	-0.965027017683427	0.2	0	0	0	172.14173652418	172.241709192982	0.0999726688023657	0.200029939878732
30645.75	100	222	1	78	1	2	0	1	1	3	2	157.5	112.5	1.45300542607573	0.368426572171501	0.2	0	0	0	172.441740595736	172.541717165615	0.0999765698798001	0.200031402753666
30720.75	100	223	1	79	1	2	0	1	1	2	-1	135	0	3.05269025943502	2.5357249700009	0.2	0	0	0	172.741744423518	172.841725382023	0.0999809585046023	0.200027257902548
30795.75	100	224	1	80	1	2	0	1	1	3	2	67.5	22.5	2.10025292027019	-2.55883421703038	0.2	0	0	0	173.041759710293	173.141739693703	0.0999799834098667	0.200034328270704
30870.75	100	225	1	81	1	2	0	1	1	3	1	22.5	157.5	2.77234151663866	0.507191239511732	0.2	0	0	0	173.341767682927	173.441749616759	0.0999819338321686	0.200027989223599
30945.75	100	226	1	82	1	2	0	1	1	3	1	22.5	67.5	-2.36001663096105	0.661247332328955	0.2	0	0	0	173.641770047834	173.741751006339	0.0999809585046023	0.200020431075245
31020.75	100	227	1	83	1	2	0	1	1	3	1	112.5	67.5	1.5506185426474	-2.2142897244469	0.2	0	0	0	173.941777289147	174.04175946652	0.0999821773730218	0.200026282807812
31095.75	100	228	1	84	1	2	0	1	1	0	2	67.5	112.5	-3.0766026523627	-0.488889713968504	0.2	0	0	0	174.241785261547	174.341768902028	0.0999836404807866	0.200025795027614
31170.75	100	229	1	85	1	2	0	1	1	0	1	22.5	67.5	-2.85778901203247	-1.77038912609379	0.2	0	0	0	174.541794940829	174.641772486037	0.0999775452073663	0.200026038801298
31245.75	100	230	1	86	1	2	0	1	1	0	1	22.5	67.5	3.02132767630452	2.04660997201437	0.2	0	0	0	174.841802182142	174.941783871967	0.099981689825654	0.200029696105048
31320.75	100	231	1	87	1	2	0	1	1	0	1	22.5	157.5	1.02915735634295	3.0384968409834	0.2	0	0	0	175.141815274721	175.241791600594	0.0999763258732855	0.200031402753666
31395.75	100	232	1	88	1	2	0	1	1	0	2	67.5	22.5	-0.209960476479677	1.60082471309463	0.2	0	0	0	175.441819590051	175.5418044494	0.0999848593492061	0.20002798945643
31470.75	100	233	1	89	1	2	0	1	1	0	2	67.5	112.5	0.697401331480626	-0.0566634911672703	0.2	0	0	0	175.741828050232	175.841808277182	0.09998022695072	0.200023600831628
31545.75	100	234	1	90	1	2	0	1	1	0	2	67.5	22.5	0.610656352794012	-2.5369949149477	0.2	0	0	0	176.041835291311	176.141820150893	0.0999848595820367	0.200027014128864
31620.75	100	235	1	91	1	2	0	1	1	0	2	157.5	22.5	-1.56634033945973	-0.000876943292110965	0.2	0	0	0	176.341845945921	176.4418283673	0.0999824213795364	0.200025795027614
31695.75	100	236	1	92	1	2	0	1	1	0	1	22.5	157.5	-1.44139810187563	0.454252172883606	0.2	0	0	0	176.641846847953	176.741827806458	0.0999809585046023	0.200018480652943
31770.75	100	237	1	93	1	2	0	1	1	0	2	157.5	22.5	2.66668721771358	0.263175623213802	0.2	0	0	0	176.941846043337	177.041827733396	0.0999816900584847	0.200018236879259
31845.75	100	238	1	94	1	2	0	1	1	0	1	22.5	157.5	2.59737887187071	-2.41025591384758	0.2	0	0	0	177.241855235072	177.341837900225	0.0999826651532203	0.200027501676232
31920.75	100	239	1	95	1	2	0	1	1	0	2	157.5	112.5	-1.68057646925486	-0.584244405323803	0.2	0	0	0	177.541863207472	177.641843434656	0.0999802271835506	0.200025307247415
31995.75	100	240	1	96	1	2	0	1	1	0	1	112.5	67.5	-1.72565299642446	1.67873358217171	0.2	0	0	0	177.841876787832	177.941882127197	0.100005339365453	0.200033353175968
32070.75	100	241	1	97	1	2	0	1	1	0	1	112.5	67.5	-0.229950487656102	-0.6979513989911	0.2	0	0	0	178.141877689864	178.241867425386	0.0999897355213761	0.199995562667027
32145.75	100	242	1	98	1	2	0	1	1	0	2	157.5	22.5	3.08303526136538	0.711249771258251	0.2	0	0	0	178.441882980522	178.54190563038	0.100022649858147	0.200015555135906
32220.75	100	243	1	99	1	2	0	1	1	0	2	157.5	22.5	1.61240144678905	1.32644421417419	0.2	0	0	0	178.741924598813	178.841887759278	0.0999631604645401	0.200018968433142
32295.75	100	244	1	100	1	2	0	1	1	0	1	112.5	157.5	1.60865485159606	-0.287605984038737	0.2	0	0	0	179.041907946579	179.141887685983	0.0999797394033521	0.200020187301561
32370.75	100	245	1	101	1	2	0	1	1	0	2	157.5	22.5	2.52740165598142	-2.63936817847476	0.2	0	0	0	179.341913237236	179.441893951967	0.0999807147309184	0.20002555125393
32445.75	100	246	1	102	1	2	0	1	1	0	2	67.5	112.5	-0.659889674844593	-0.890070816778011	0.2	0	0	0	179.641923891846	179.741901680827	0.0999777889810503	0.200029939878732
32520.75	100	247	1	103	1	2	0	1	1	0	2	157.5	112.5	-0.0382617170557418	-1.93343417929148	0.2	0	0	0	179.941929913824	180.04190916568	0.0999792518559843	0.200028232997283
32595.75	100	248	1	104	1	2	0	1	1	0	1	112.5	157.5	3.0205872041047	2.96548463603201	0.2	0	0	0	180.241942518856	180.34191933251	0.099976813653484	0.200033353175968
32670.75	100	249	1	105	1	2	0	1	1	0	1	112.5	67.5	-2.12627703010776	-2.38726836785467	0.2	0	0	0	180.541972921928	180.641940714559	0.0999677926301956	0.20005358941853
32745.75	100	250	1	106	1	2	0	1	1	0	1	112.5	67.5	-1.92331050180701	-0.916321392595382	0.2	0	0	0	180.841955538373	180.941932839574	0.0999773012008518	0.200014823814854
32820.75	100	251	1	107	1	2	0	1	1	0	1	22.5	67.5	0.695154495240068	1.17694207263184	0.2	0	0	0	181.141962047899	181.241944469279	0.0999824213795364	0.20002920832485
32895.75	100	252	1	108	1	2	0	1	1	0	2	157.5	112.5	1.43191631925322	1.12248386868522	0.2	0	0	0	181.441970264306	181.541955367662	0.0999851033557206	0.200025795027614
32970.75	100	253	1	109	1	2	0	1	1	0	1	22.5	67.5	-0.527562260095416	-2.19008669187618	0.2	0	0	0	181.741979699815	181.841962608742	0.0999829089269042	0.20002433215268
33045.75	100	254	1	110	1	2	0	1	1	0	2	67.5	22.5	0.969538245704921	2.91977468553582	0.2	1	0	0	182.041990841972	182.141968386946	0.0999775449745357	0.200028233230114
33120.75	100	255	1	111	1	2	0	1	1	0	1	22.5	157.5	-2.89168768103021	-0.519287943302656	0.2	0	0	0	182.341996376403	182.441989525454	0.0999931490514427	0.20002798945643
33195.75	100	256	1	112	1	2	0	1	1	0	1	112.5	157.5	-2.51633328128979	-0.970538245486494	0.2	0	0	0	182.642018733779	182.741995059885	0.0999763261061162	0.20002920832485
33270.75	100	257	1	113	1	2	0	1	1	0	1	112.5	157.5	-0.179941302825458	-2.97721510314399	0.2	0	0	0	182.942019392038	183.042008396238	0.0999890042003244	0.20002433215268
33345.75	100	258	1	114	1	2	0	1	1	0	2	157.5	112.5	-0.549923806644787	-1.1864698176149	0.2	0	0	0	183.242028339766	183.342011248693	0.0999829089269042	0.200019943527877
33420.75	100	259	1	115	1	2	0	1	1	0	1	112.5	67.5	0.538041897070681	2.74243609508102	0.2	0	0	0	183.542035581078	183.64200751856	0.0999719374813139	0.20002433238551
33495.75	100	260	1	116	1	2	0	1	1	0	2	157.5	22.5	1.94863238499775	-0.437495325686376	0.2	0	0	0	183.842034776462	183.942015734967	0.0999809585046023	0.200027257902548
33570.75	100	261	1	117	1	2	0	1	1	0	1	112.5	157.5	-1.69102250528511	0.708608034389276	0.2	0	0	0	184.142041286221	184.242022976046	0.099981689825654	0.20002555125393
33645.75	100	262	1	118	1	2	0	1	1	0	2	67.5	112.5	-3.07951636557279	0.541520658947335	0.2	0	0	0	184.442047551973	184.542044601869	0.0999970498960465	0.200024575926363
33720.75	100	263	1	119	1	2	0	1	1	0	1	112.5	67.5	-2.46895756691661	-2.76738879214645	0.2	0	0	0	184.742057231255	184.842040383955	0.0999831527005881	0.200012629386038
33795.75	100	264	1	120	1	2	0	1	1	0	2	157.5	22.5	-2.98170718175476	2.61108959714714	0.2	0	0	0	185.042066178983	185.142048112815	0.0999819338321686	0.200025795027614
33870.75	100	265	1	121	1	2	0	1	1	0	2	67.5	112.5	1.25161170750843	0.849246928118972	0.2	0	0	0	185.342078052694	185.442060230067	0.0999821773730218	0.200029939878732
33945.75	100	266	1	122	1	2	0	1	1	0	2	67.5	22.5	2.55355033636024	-0.130430644661116	0.2	0	0	0	185.642111137509	185.742094046436	0.0999829089269042	0.200050907442346
34020.75	100	267	1	123	1	2	0	1	1	0	2	67.5	112.5	-2.71809095469739	-3.06612014534657	0.2	0	0	0	185.942118866369	186.042102750624	0.0999838842544705	0.200024819932878
34095.75	100	268	1	124	1	2	0	1	1	3	1	112.5	157.5	-1.18201012273922	0.0942047819542715	0.2	0	0	0	186.242131715175	186.342107553501	0.0999758383259177	0.200028964551166
34170.75	100	269	1	125	1	2	0	1	1	3	2	157.5	112.5	2.73716184660722	-2.49611930327782	0.2	0	0	0	186.54211140587	186.642093095696	0.099981689825654	0.200003852369264
34245.75	100	270	1	126	1	2	0	1	1	3	2	67.5	112.5	0.0319500191287356	-2.0541112240079	0.2	0	0	0	186.842119866051	186.942100336775	0.0999804707244039	0.20002677035518
34320.75	100	271	1	127	1	2	0	1	1	3	1	22.5	157.5	-0.134735195384494	1.15461802120167	0.2	0	0	0	187.142128082458	187.242102945689	0.0999748632311821	0.200027745682746
35875	100	272	2	0	2	2	90	1	2	3	1	112.5	157.5	-1.03081751470224	-0.589835064259738	0.183333333333333	0	0	0	193.359004778787	193.458943558158	0.0999387793708593	-1
35958.25	100	273	2	1	2	2	90	1	2	3	1	22.5	157.5	0.471777837583486	2.5210991087233	0.233333333333333	0	0	0	193.692348352168	193.79231200018	0.0999636480119079	0.233404794009402
36054	100	274	2	2	2	2	90	1	2	3	2	157.5	112.5	-1.17341554137495	0.738949931598229	0.283333333333333	0	0	0	194.075661193347	194.175638250774	0.0999770574271679	0.283349193166941
36145.75	100	275	2	3	2	2	90	1	2	3	2	157.5	22.5	-1.37082947870281	-1.38673736396368	0.266666666666667	0	0	0	194.442335978849	194.542317912448	0.0999819335993379	0.266697728075087
36204	100	276	2	4	2	2	90	1	2	0	1	112.5	157.5	2.46332931695865	-2.73003347276268	0.133333333333333	0	0	0	194.675673968857	194.775671018753	0.0999970498960465	0.133356056408957
36258.25	100	277	2	5	2	2	90	1	2	0	2	67.5	22.5	2.4098506643446	-1.06912487912477	0.116666666666667	0	0	0	194.892347084358	194.992354861926	0.100007777567953	0.116676065605134
36354	100	278	2	6	2	2	90	1	2	0	2	157.5	22.5	2.0451912377685	0.634794341798515	0.283333333333333	0	0	0	195.275709175039	195.3756745297	0.0999653546605259	0.283354313112795
36454	100	279	2	7	2	2	90	1	2	0	1	112.5	67.5	0.338629401512245	0.400567237404033	0.3	0	0	0	195.675696155522	195.775683453074	0.0999872975517064	0.30002162582241
36504	100	280	2	8	2	2	90	1	2	0	1	22.5	67.5	-1.54214615268511	1.89598982096487	0.1	0	0	0	195.875705127837	195.975688524311	0.099983396474272	0.100021674763411
36554	100	281	2	9	2	2	90	1	2	0	1	112.5	67.5	0.917228875155036	-0.177657597802511	0.1	0	0	0	196.075714587467	196.175687988056	0.0999734005890787	0.100026063155383
36637.5	100	282	2	10	2	2	90	1	2	0	2	67.5	112.5	-0.826961958742081	-2.80788063677752	0.233333333333333	0	0	0	196.409052065574	196.509034730727	0.0999826651532203	0.233364077517763
36716.5	100	283	2	11	2	2	90	1	2	0	1	112.5	157.5	0.0414316062469395	1.40390534604488	0.216666666666667	0	0	0	196.725711991079	196.825713185593	0.100001194514334	0.216677260352299
36812.5	100	284	2	12	2	2	90	1	2	0	1	112.5	67.5	0.0499969814192882	2.47425657688031	0.283333333333333	0	0	0	197.109072375111	197.209055527812	0.0999831527005881	0.283359189517796
36904	100	285	2	13	2	2	90	1	2	0	1	112.5	67.5	0.0960924476336933	0.803687591918895	0.266666666666667	0	0	0	197.47574691684	197.57573299529	0.0999860784504563	0.266691389027983
36991.5	100	286	2	14	2	2	90	1	2	0	2	157.5	112.5	-0.613194968998631	1.70567939572962	0.25	0	0	0	197.825753901852	197.925737054553	0.0999831527005881	0.250020906561986
37045.75	100	287	2	15	2	2	90	1	2	0	1	22.5	157.5	0.496482692522201	1.39523151145541	0.116666666666667	0	0	0	198.042428724002	198.142407000531	0.0999782765284181	0.11669166944921
37125	100	288	2	16	2	2	90	1	2	0	2	67.5	22.5	-1.52170439902244	2.87138201118026	0.216666666666667	0	0	0	198.359107666416	198.459082773421	0.099975107004866	0.216700665885583
37225	100	289	2	17	2	2	90	1	2	0	1	112.5	157.5	-1.11325601026119	0.976259569059118	0.3	0	0	0	198.759102205047	198.859083163552	0.0999809585046023	0.300019431626424
37325	100	290	2	18	2	2	90	1	2	0	2	67.5	112.5	2.93839514602436	-2.4811629863656	0.3	0	0	0	199.159153551329	199.259099888848	0.0999463375192136	0.300070387776941
37375	100	291	2	19	2	2	90	1	2	0	1	112.5	157.5	1.02371756065746	0.962449286301631	0.1	0	0	0	199.35916179209	199.459146163892	0.0999843718018383	0.100061903242022
37454	100	292	2	20	2	2	90	1	2	0	2	67.5	112.5	3.07679766247375	2.53282206121971	0.216666666666667	0	0	0	199.675796605181	199.775781708304	0.09998510312289	0.216650441288948
37529	100	293	2	21	2	2	90	1	2	0	2	67.5	112.5	-0.906100077595772	0.263425018176676	0.2	0	0	0	199.975804577814	200.075789680937	0.09998510312289	0.200022869510576
37600	100	294	2	22	2	2	90	1	2	0	1	22.5	67.5	-2.67996879947498	-2.7180941317257	0.183333333333333	0	0	0	200.259185466217	200.359133997932	0.0999485317151994	0.183395785279572
37662.5	100	295	2	23	2	2	90	1	2	0	2	157.5	112.5	1.20836545667255	0.303753241658056	0.15	0	0	0	200.509150540456	200.609144664602	0.0999941241461784	0.150016542524099
37762.5	100	296	2	24	2	2	90	1	2	0	1	22.5	67.5	-0.0931319237549544	-1.84267921921621	0.3	0	0	0	200.909173848573	201.009163828101	0.0999899795278907	0.300029183970764
37825	100	297	2	25	2	2	90	1	2	0	2	67.5	112.5	1.78415393084793	-2.07842696333987	0.15	0	0	0	201.159180858172	201.259161085123	0.09998022695072	0.150017030071467
37920.75	100	298	2	26	2	2	90	1	2	0	1	22.5	67.5	-2.34889767572591	-2.69711931964675	0.283333333333333	0	0	0	201.542528320104	201.642528051976	0.0999997318722308	0.283367234980687
37995.75	100	299	2	27	2	2	90	1	2	0	1	22.5	67.5	-0.976677581286491	0.442067991546712	0.2	0	0	0	201.842554578558	201.942538462579	0.0999838840216398	0.200026526581496
38062.5	100	300	2	28	2	2	90	1	2	0	2	67.5	22.5	-0.733496388005873	-2.28107689874172	0.166666666666667	0	0	0	202.109229632188	202.209198400145	0.0999687679577619	0.166691169608384
38150	100	301	2	29	2	2	90	1	2	0	2	67.5	22.5	-2.36642365318628	-0.0513907690645659	0.25	0	0	0	202.4592483202	202.559238543501	0.0999902233015746	0.250049920054153
38208.25	100	302	2	30	2	2	90	1	2	0	1	22.5	67.5	-2.48040123151065	0.039662069167548	0.133333333333333	0	0	0	202.692574363668	202.792542156298	0.0999677926301956	0.133335820166394
38291.75	100	303	2	31	2	2	90	1	2	0	1	22.5	67.5	-0.714709086033789	2.12530176836154	0.233333333333333	0	0	0	203.025906721829	203.125884023029	0.0999773012008518	0.233364565530792
38350	100	304	2	32	2	2	90	1	2	0	2	157.5	112.5	-0.578301699745918	-0.252545979555275	0.133333333333333	0	0	0	203.259264704306	203.359212260693	0.0999475563876331	0.133380681276321
38412.5	100	305	2	33	2	2	90	1	2	0	1	22.5	157.5	-2.1475491856893	-1.82810336948486	0.15	0	0	0	203.509235142265	203.609215369448	0.0999802271835506	0.150022881571203
38487.5	100	306	2	34	2	2	90	1	2	0	1	112.5	67.5	-1.83480359412842	-1.98374116107757	0.2	0	0	0	203.809239945374	203.909220903879	0.0999809585046023	0.200024575926363
38587.5	100	307	2	35	2	2	90	1	2	0	2	157.5	112.5	1.17432045136833	-2.18054199828832	0.3	0	0	0	204.209257889772	204.309231290128	0.099973400356248	0.300036985892802
38654.25	100	308	2	36	2	2	90	1	2	3	1	22.5	157.5	-1.06249829562145	-0.970233158813416	0.166666666666667	0	0	0	204.475930261659	204.575906587765	0.0999763261061162	0.166698971530423
38737.5	100	309	2	37	2	2	90	1	2	3	1	112.5	157.5	-0.323769542860572	-2.40371674415834	0.233333333333333	0	0	0	204.809284318704	204.909257962834	0.0999736441299319	0.233377730939537
38812.5	100	310	2	38	2	2	90	1	2	3	2	67.5	112.5	-0.389795137635287	2.45053086426422	0.2	0	0	0	205.10928546451	205.209275444038	0.0999899795278907	0.200027501676232
38912.5	100	311	2	39	2	2	90	1	2	2	-1	45	90	-1.10456877731537	2.97180345894326	0.3	0	0	0	205.509296582313	205.609281197889	0.0999846155755222	0.300021138275042
38991.75	100	312	2	40	2	2	90	1	2	3	2	157.5	112.5	-1.45905223184794	-1.32194595974924	0.216666666666667	0	0	0	205.825961627765	205.925943073817	0.0999814460519701	0.216680429875851
39054.25	100	313	2	41	2	2	90	1	2	3	2	157.5	22.5	-1.79180919574541	0.252921023844909	0.15	0	0	0	206.075968149584	206.17595032719	0.0999821776058525	0.150025075767189
39104.25	100	314	2	42	2	2	90	1	2	3	1	112.5	67.5	1.11238356057946	2.9941404063141	0.1	0	0	0	206.275976146571	206.3759544231	0.0999782765284181	0.100025819381699
39158.25	100	315	2	43	2	2	90	1	2	3	2	67.5	22.5	-2.32080718442726	2.09498592845764	0.116666666666667	0	0	0	206.492652431596	206.592628269922	0.0999758383259177	0.116698008496314
39250	100	316	2	44	2	2	90	1	2	0	2	157.5	22.5	0.531968648233155	-0.179190698119074	0.266666666666667	0	0	0	206.859340138966	206.959318659268	0.099978520302102	0.266711869044229
39341.75	100	317	2	45	2	2	90	1	2	0	2	67.5	22.5	-2.6397728141824	-0.380800297386698	0.266666666666667	0	0	0	207.226010779617	207.325994420098	0.0999836404807866	0.266692120349035
39404.25	100	318	2	46	2	2	90	1	2	0	2	157.5	22.5	3.020606304283	1.39205829253858	0.15	0	0	0	207.476025103591	207.57599752862	0.0999724250286818	0.150030683493242
39458.25	100	319	2	47	2	2	90	1	2	0	1	22.5	67.5	2.46916335318476	-1.18104934105622	0.116666666666667	0	0	0	207.692693830468	207.792677470716	0.0999836402479559	0.116696301847696
39537.5	100	320	2	48	2	2	90	1	2	0	2	157.5	112.5	1.74872659446349	2.67058511356233	0.216666666666667	0	0	0	208.009363508085	208.109342759941	0.0999792518559843	0.216686037369072
39608.25	100	321	2	49	2	2	90	1	2	0	1	112.5	67.5	1.25145917789371	-1.02419648664039	0.183333333333333	0	0	0	208.292705386877	208.392736082664	0.1000306957867	0.183362626936287
39666.75	100	322	2	50	2	2	90	1	2	0	2	67.5	22.5	1.21915959888582	0.513818373643104	0.133333333333333	0	0	0	208.526055811439	208.626028967788	0.0999731563497335	0.13331972877495
39750	100	323	2	51	2	2	90	1	2	0	1	22.5	157.5	-0.559878220669023	1.37756051295832	0.233333333333333	0	0	0	208.859391582664	208.959371566074	0.0999799834098667	0.233362614875659
39825	100	324	2	52	2	2	90	1	2	0	2	67.5	22.5	-2.70053176544876	1.10158753141633	0.2	0	0	0	209.159398336196	209.25937856338	0.0999802271835506	0.200026770122349
39879.25	100	325	2	53	2	2	90	1	2	0	1	112.5	157.5	-1.69605605469721	-1.88812321076518	0.116666666666667	0	0	0	209.376066331752	209.476051434875	0.09998510312289	0.116687768371776
39945.75	100	326	2	54	2	2	90	1	2	0	1	112.5	157.5	-2.3435039013112	1.31085403944051	0.166666666666667	0	0	0	209.64273065771	209.742711859988	0.0999812022782862	0.166679222835228
40016.75	100	327	2	55	2	2	90	1	2	3	1	112.5	67.5	-2.85407942201963	0.229674422504565	0.183333333333333	0	0	0	209.926069610985	210.026053495239	0.0999838842544705	0.183357750996947
40066.75	100	328	2	56	2	2	90	1	2	3	1	22.5	67.5	-2.15041105972448	1.07359695155755	0.1	0	0	0	210.126075657317	210.226057834923	0.0999821776058525	0.100022162077948
40154.25	100	329	2	57	2	2	90	1	2	3	1	22.5	157.5	0.825155914690098	0.0827845985245634	0.25	0	0	0	210.476088737836	210.576068964787	0.09998022695072	0.25003090291284
40237.5	100	330	2	58	2	2	90	1	2	1	-1	90	135	-2.56871192228306	-0.87337337364607	0.233333333333333	0	0	0	210.809441576013	210.909421071643	0.0999794956296682	0.233372611226514
40329.25	100	331	2	59	2	2	90	1	2	3	1	112.5	157.5	1.77633850130242	-0.0926268093093383	0.266666666666667	0	0	0	211.176116605289	211.27608781145	0.0999712061602622	0.266695533646271
40408.25	100	332	2	60	2	2	90	1	2	3	2	67.5	22.5	0.302128501036617	2.51776663227956	0.216666666666667	0	0	0	211.492785795359	211.592765290989	0.0999794956296682	0.216697983909398
40470.75	100	333	2	61	2	2	90	1	2	3	2	157.5	112.5	-1.98625835879914	-1.45137507876218	0.15	0	0	0	211.742790122982	211.842766936636	0.099976813653484	0.150024831993505
40537.5	100	334	2	62	2	2	90	1	2	3	2	67.5	112.5	2.53124574033924	-0.36322655658017	0.166666666666667	0	0	0	212.00946030044	212.109443209367	0.0999829089269042	0.16669336380437
40604.25	100	335	2	63	2	2	90	1	2	0	1	22.5	67.5	1.3488236255935	-0.744039532252119	0.166666666666667	0	0	0	212.276134135202	212.376116800355	0.0999826651532203	0.1666909258347
40695.75	100	336	2	64	2	2	90	1	2	0	1	22.5	67.5	1.67573205639719	2.50840709825574	0.266666666666667	0	0	0	212.6428111149	212.742796949577	0.0999858346767724	0.26669431454502
40766.75	100	337	2	65	2	2	90	1	2	0	2	67.5	112.5	-0.415893063686998	-0.423985723263537	0.183333333333333	0	0	0	212.92615396902	213.026135171298	0.0999812022782862	0.183357019443065
40850	100	338	2	66	2	2	90	1	2	0	2	67.5	22.5	-2.4271206486461	-0.997732890733323	0.233333333333333	0	0	0	213.259497298626	213.359478257131	0.0999809585046023	0.233362127328292
40937.5	100	339	2	67	2	2	90	1	2	0	2	157.5	22.5	0.558887922366991	-0.724492523888101	0.25	0	0	0	213.60950550274	213.709492556518	0.0999870537780225	0.25002724560909
41016.75	100	340	2	68	2	2	90	1	2	0	1	22.5	157.5	-3.12974490151728	-2.37260121379148	0.216666666666667	0	0	0	213.926183957607	214.026167354314	0.0999833967071027	0.21669140108861
41075	100	341	2	69	2	2	90	1	2	0	1	22.5	157.5	2.36344751406582	1.57585333130757	0.133333333333333	0	0	0	214.15955998213	214.259504856775	0.0999448746442795	0.133392627816647
41129.25	100	342	2	70	2	2	90	1	2	0	2	157.5	112.5	-0.763145101376197	-0.0463222690736584	0.116666666666667	0	0	0	214.376199939288	214.476176753175	0.0999768138863146	0.116695082513615
41191.75	100	343	2	71	2	2	90	1	2	0	2	67.5	22.5	1.64284336160142	0.26719992031253	0.15	0	0	0	214.626202072715	214.726201316807	0.0999992440920323	0.150025319540873
41258.5	100	344	2	72	2	2	90	1	2	0	1	112.5	67.5	-0.90506052107535	0.370255745712755	0.166666666666667	0	0	0	214.892886634916	214.992870762944	0.0999841280281544	0.166685318108648
41346	100	345	2	73	2	2	90	1	2	0	1	112.5	157.5	0.576655284891898	-1.43020802839166	0.25	0	0	0	215.242897277232	215.342875797767	0.0999785205349326	0.250026514288038
41412.5	100	346	2	74	2	2	90	1	2	0	2	67.5	112.5	-2.40985276056539	-1.23016359903611	0.166666666666667	0	0	0	215.509567454923	215.609549144749	0.099981689825654	0.166691657155752
41504.25	100	347	2	75	2	2	90	1	2	0	1	22.5	157.5	-2.1532160773012	0.426397751838014	0.266666666666667	0	0	0	215.876247116597	215.976228806423	0.099981689825654	0.266697971848771
41579.25	100	348	2	76	2	2	90	1	2	0	2	157.5	22.5	0.973626392871332	-1.56249561325996	0.2	0	0	0	216.176256064326	216.276236535283	0.0999804709572345	0.200027257902548
41654.25	100	349	2	77	2	2	90	1	2	0	1	22.5	157.5	1.24972259255713	1.01721191826725	0.2	0	0	0	216.476267937804	216.576245970558	0.0999780327547342	0.200031402520835
41708.5	100	350	2	78	2	2	90	1	2	0	1	112.5	67.5	-2.60612167237048	-0.0941304696680541	0.116666666666667	0	0	0	216.692959095119	216.792936640326	0.0999775452073663	0.116713124560192
41791.75	100	351	2	79	2	2	90	1	2	0	2	157.5	112.5	-2.75259732043139	-2.28463056886305	0.233333333333333	0	0	0	217.026284870459	217.12626265944	0.0999777889810503	0.233348230132833
41850	100	352	2	80	2	2	90	1	2	0	1	112.5	67.5	1.68466256885482	3.04622409183274	0.133333333333333	0	0	0	217.259625054896	217.359602356097	0.0999773012008518	0.133362395456061
41937.5	100	353	2	81	2	2	90	1	2	0	2	67.5	112.5	-1.66245519528054	2.52945938102191	0.25	0	0	0	217.60964861908	217.709600076545	0.0999514574650675	0.250046262983233
42012.5	100	354	2	82	2	2	90	1	2	0	1	112.5	157.5	-1.28940040902065	-0.676493367749242	0.2	0	0	0	217.909622945823	218.009606586304	0.0999836404807866	0.200022869277745
42075	100	355	2	83	2	2	90	1	2	0	1	22.5	67.5	-1.01918343191372	-0.319737698778172	0.15	0	0	0	218.159667014377	218.259613351896	0.0999463375192136	0.15006042807363
42125	100	356	2	84	2	2	90	1	2	0	2	157.5	22.5	1.62012450532416	-0.949060552954763	0.1	0	0	0	218.359675011365	218.459616472712	0.0999414613470435	0.100061659468338
42221	100	357	2	85	2	2	90	1	2	0	2	157.5	112.5	0.495131177227558	-1.0700608535059	0.283333333333333	0	0	0	218.742989315419	218.84297368722	0.0999843718018383	0.28337284270674
42300	100	358	2	86	2	2	90	1	2	0	1	112.5	67.5	-2.12874935353624	-1.54618994752953	0.216666666666667	0	0	0	219.059662406566	219.159644096391	0.099981689825654	0.216688719345257
42371	100	359	2	87	2	2	90	1	2	0	2	157.5	22.5	-1.10630213136396	1.84258727805927	0.183333333333333	0	0	0	219.343005748233	219.442985975184	0.09998022695072	0.183361651841551
42421	100	360	2	88	2	2	90	1	2	0	1	22.5	157.5	-3.11920172806401	-2.36521533068745	0.1	0	0	0	219.543015451869	219.64299860457	0.0999831527005881	0.100029476685449
42500	100	361	2	89	2	2	90	1	2	0	2	157.5	22.5	2.50668755358517	2.14410931010498	0.216666666666667	0	0	0	219.859717800049	219.959692907054	0.099975107004866	0.216719195479527
42596	100	362	2	90	2	2	90	1	2	0	2	67.5	22.5	1.54578281896299	3.08487252968341	0.283333333333333	0	0	0	220.243034542073	220.343008186202	0.0999736441299319	0.283341635018587
42666.75	100	363	2	91	2	2	90	1	2	0	1	112.5	157.5	1.4554476963661	-2.42024903272196	0.183333333333333	0	0	0	220.526368131395	220.626345432829	0.0999773014336824	0.183359945192933
42750	100	364	2	92	2	2	90	1	2	0	2	157.5	22.5	-2.1547458898214	0.613767086137238	0.233333333333333	0	0	0	220.859723407542	220.959721920313	0.0999985127709806	0.233377974713221
42808.5	100	365	2	93	2	2	90	1	2	0	2	67.5	112.5	1.42791628175243	-1.90758819193046	0.133333333333333	0	0	0	221.093053352088	221.193036992336	0.0999836402479559	0.133331431774423
42875	100	366	2	94	2	2	90	1	2	0	1	22.5	157.5	1.03501057861534	1.25373698686827	0.166666666666667	0	0	0	221.359756687656	221.459695223253	0.0999385355971754	0.166719695320353
42975	100	367	2	95	2	2	90	1	2	0	2	157.5	22.5	0.848559197865449	-0.255471765287742	0.3	0	0	0	221.75972416345	221.8597090228	0.0999848593492061	0.30002894019708
43046	100	368	2	96	2	2	90	1	2	0	2	67.5	22.5	-1.30694554805514	-0.544312077082956	0.183333333333333	0	0	0	222.04306409182	222.143047244521	0.0999831527005881	0.183355069020763
43125	100	369	2	97	2	2	90	1	2	0	1	22.5	67.5	2.09581791496337	-1.23337842756066	0.216666666666667	0	0	0	222.359749617288	222.459727406036	0.0999777887482196	0.216702372767031
43175	100	370	2	98	2	2	90	1	2	0	2	157.5	112.5	-2.49410559360007	-2.34168643611522	0.1	0	0	0	222.559755907394	222.659728332656	0.0999724252615124	0.100028501357883
43233.5	100	371	2	99	2	2	90	1	2	0	2	157.5	22.5	-3.03350856337688	-0.388558365986547	0.133333333333333	0	0	0	222.79308658326	222.893070223741	0.0999836404807866	0.133358250604942
43296	100	372	2	100	2	2	90	1	2	0	1	112.5	67.5	2.63698550601287	1.31675489393182	0.15	0	0	0	223.043092373759	223.143075282685	0.0999829089269042	0.150022150017321
43383.5	100	373	2	101	2	2	90	1	2	3	2	157.5	112.5	2.28781985976482	2.42153454474571	0.25	0	0	0	223.393104722723	223.493092264049	0.0999875413253903	0.250029440037906
43433.5	100	374	2	102	2	2	90	1	2	3	1	22.5	67.5	-0.402383359498723	-0.724108263871751	0.1	0	0	0	223.593107355759	223.693091971567	0.0999846158083528	0.100015091709793
43529.25	100	375	2	103	2	2	90	1	2	3	1	22.5	157.5	0.0347983627033313	-2.46433237328864	0.283333333333333	0	0	0	223.976467252243	224.076448698295	0.0999814460519701	0.28337528067641
43612.5	100	376	2	104	2	2	90	1	2	2	-1	45	90	0.883379682608919	-2.14625418062779	0.233333333333333	0	0	0	224.309826917015	224.409808850614	0.0999819335993379	0.233378218719736
43687.5	100	377	2	105	2	2	90	1	2	3	1	112.5	67.5	-2.82788759519829	-2.45388244314436	0.2	0	0	0	224.609818066703	224.709820480552	0.100002413848415	0.200009216088802
43787.5	100	378	2	106	2	2	90	1	2	3	1	112.5	157.5	-1.16852836734079	-2.68967226527989	0.3	0	0	0	225.009845032124	225.109834523872	0.0999894917476922	0.300024551572278
43879.25	100	379	2	107	2	2	90	1	2	3	2	67.5	112.5	-0.899284888561862	-1.48247362840999	0.266666666666667	0	0	0	225.376501044258	225.476482246537	0.0999812022782862	0.266666520386934
43941.75	100	380	2	108	2	2	90	1	2	3	2	157.5	22.5	1.26090852453416	1.84933791349061	0.15	0	0	0	225.626541211968	225.72648949991	0.0999482879415154	0.150058965431526
44037.5	100	381	2	109	2	2	90	1	2	0	1	112.5	157.5	-2.3575829928782	-1.13325688237031	0.283333333333333	0	0	0	226.009849664522	226.109836474294	0.099986809771508	0.283360164612532
44100	100	382	2	110	2	2	90	1	2	0	1	112.5	157.5	-2.0044771574198	1.47371005091169	0.15	0	0	0	226.259858868318	226.359870059183	0.100011190865189	0.150022394023836
44191.75	100	383	2	111	2	2	90	1	2	0	2	157.5	112.5	-1.01608861503504	2.17202607888674	0.266666666666667	0	0	0	226.626529508969	226.726507785497	0.0999782765284181	0.266659449785948
44266.75	100	384	2	112	2	2	90	1	2	0	2	157.5	112.5	2.37889703628098	2.14539629753275	0.2	0	0	0	226.926543576876	227.026522097178	0.099978520302102	0.200035791378468
44316.75	100	385	2	113	2	2	90	1	2	0	2	67.5	22.5	-1.55665028808289	1.64471313922915	0.1	0	0	0	227.12655133009	227.226532532368	0.0999812022782862	0.100029232911766
44383.5	100	386	2	114	2	2	90	1	2	0	2	157.5	22.5	1.03148612878073	1.12547825802679	0.166666666666667	0	0	0	227.393227115041	227.493209292646	0.0999821776058525	0.16669458267279
44466.75	100	387	2	115	2	2	90	1	2	0	1	112.5	67.5	-1.57992935626274	0.565325094304551	0.233333333333333	0	0	0	227.726566787576	227.826547014527	0.09998022695072	0.233357494929805
44516.75	100	388	2	116	2	2	90	1	2	0	2	67.5	112.5	0.0967333899333167	-1.4054244430039	0.1	0	0	0	227.92656868929	228.026553061092	0.0999843718018383	0.100021674763411
44604.25	100	389	2	117	2	2	90	1	2	0	1	22.5	67.5	1.34134935355772	-0.649541172187165	0.25	0	0	0	228.276583232451	228.376558095682	0.0999748632311821	0.250030171358958
44700.25	100	390	2	118	2	2	90	1	2	0	2	67.5	112.5	-2.06772454417735	1.88836231898737	0.283333333333333	0	0	0	228.65992216114	228.759891173104	0.0999690119642764	0.283364065457135
44787.75	100	391	2	119	2	2	90	1	2	0	1	22.5	157.5	2.99950970358382	2.55468004976492	0.25	0	0	0	229.009932803456	229.109915468609	0.0999826651532203	0.250041630351916
44879.25	100	392	2	120	2	2	90	1	2	0	2	67.5	112.5	2.97469979782309	-2.83707158673382	0.266666666666667	0	0	0	229.376598324394	229.476582208415	0.0999838840216398	0.266682855784893
44975.25	100	393	2	121	2	2	90	1	2	0	1	22.5	157.5	0.504689222255474	-1.66800736910171	0.283333333333333	0	0	0	229.759942860575	229.859922843985	0.0999799834098667	0.283360652159899
45066.75	100	394	2	122	2	2	90	1	2	0	1	112.5	157.5	1.02013165148186	0.926390862080855	0.266666666666667	0	0	0	230.126616183436	230.226601530332	0.0999853468965739	0.266693339450285
45166.75	100	395	2	123	2	2	90	1	2	0	1	22.5	157.5	2.08834989100268	-2.18314069451335	0.3	0	0	0	230.526656314498	230.626620206283	0.0999638917855918	0.300054784165695
45233.5	100	396	2	124	2	2	90	1	2	0	2	157.5	112.5	-0.574370683676694	1.44793825821559	0.166666666666667	0	0	0	230.793308206135	230.893284288468	0.0999760823324323	0.166687999852002
45287.75	100	397	2	125	2	2	90	1	2	0	2	67.5	112.5	-1.59910434279752	0.480698506107646	0.116666666666667	0	0	0	231.009974007262	231.109954965767	0.0999809585046023	0.116689718794078
45375.25	100	398	2	126	2	2	90	1	2	0	1	112.5	67.5	2.18375825025007	2.75388999932715	0.25	0	0	0	231.36003731261	231.460011444287	0.0999741316772997	0.250082346843556
45429.25	100	399	2	127	2	2	90	1	2	0	2	157.5	22.5	1.81198465683949	2.75334006382771	0.116666666666667	0	0	0	231.576671662275	231.67664384353	0.0999721812549978	0.116660217987373
45500.25	100	400	2	128	2	2	90	1	2	0	1	22.5	157.5	0.619336959414531	-1.11232269004957	0.183333333333333	0	0	0	231.859999887645	231.959989867173	0.0999899795278907	0.183356044115499
45583.5	100	401	2	129	2	2	90	1	2	0	1	112.5	157.5	2.83771770164612	0.852984403613064	0.233333333333333	0	0	0	232.193357601995	232.293334171874	0.0999765698798001	0.233367734821513
45683.5	100	402	2	130	2	2	90	1	2	0	2	67.5	22.5	-0.27541561799018	-1.89264270741394	0.3	0	0	0	232.593355553923	232.693331880029	0.0999763261061162	0.300021382048726
45754.25	100	403	2	131	2	2	90	1	2	0	2	157.5	112.5	-2.05881606614091	1.92359162930613	0.183333333333333	0	0	0	232.876691825222	232.976670833305	0.0999790080823004	0.183359945192933
45804.25	100	404	2	132	2	2	90	1	2	3	1	112.5	67.5	-1.84360663358648	1.73598689864683	0.1	0	0	0	233.076705429936	233.176680780714	0.0999753507785499	0.100034596631303
45871	100	405	2	133	2	2	90	1	2	3	2	67.5	22.5	2.20556096738863	-1.6787007814146	0.166666666666667	0	0	0	233.343378533144	233.443355834344	0.0999773012008518	0.166697752429172
45946	100	406	2	134	2	2	90	1	2	3	2	67.5	112.5	-0.330101044595635	-2.51219120902522	0.2	0	0	0	233.643385774223	233.743363319431	0.0999775452073663	0.200029939878732
46008.5	100	407	2	135	2	2	90	1	2	3	1	22.5	67.5	-1.01668041031671	-0.832067833250915	0.15	0	0	0	233.893382299924	233.993364721304	0.0999824213795364	0.150018980493769
49742	100	408	3	0	2	1	90	2	2	3	1	112.5	157.5	1.59189249399411	1.85819106781274	0.216666666666667	0	0	0	248.827143372968	248.92711896752	0.0999755945522338	-1
49812.75	100	409	3	1	2	1	90	2	2	3	2	67.5	112.5	1.84595687092221	-3.0745880444078	0.183333333333333	0	0	0	249.11050012405	249.210462796967	0.0999626729171723	0.183381156530231
49900.25	100	410	3	2	2	1	90	2	2	3	1	112.5	67.5	0.673178165259608	0.789066518033965	0.25	0	0	0	249.460569036892	249.560492700199	0.0999236633069813	0.250106239924207
49967	100	411	3	3	2	1	90	2	2	3	2	67.5	22.5	-0.501803609614969	-1.2018066166679	0.166666666666667	0	0	0	249.727157538291	249.827140934765	0.099983396474272	0.166664838092402
50021	100	412	3	4	2	1	90	2	2	0	2	157.5	112.5	-0.548298651038679	2.6022287367391	0.116666666666667	0	0	0	249.943829190684	250.043812343618	0.0999831529334188	0.116688255919144
50096	100	413	3	5	2	1	90	2	2	0	1	112.5	157.5	-2.93516511535104	1.76790275499632	0.2	0	0	0	250.243836919544	250.343826167518	0.0999892479740083	0.200024575926363
50158.5	100	414	3	6	2	1	90	2	2	0	1	112.5	67.5	1.95977083729456	-0.982594321834475	0.15	0	0	0	250.493855388137	250.593830738915	0.0999753507785499	0.150029220618308
50250.25	100	415	3	7	2	1	90	2	2	0	1	22.5	157.5	-1.43541826061822	2.47120521357895	0.266666666666667	0	0	0	250.860509937396	250.960506743519	0.0999968061223626	0.266679198481143
50337.75	100	416	3	8	2	1	90	2	2	0	1	22.5	67.5	-0.909670157966293	2.91370785565257	0.25	0	0	0	251.21053057583	251.310519092483	0.0999885166529566	0.250023832311854
50412.75	100	417	3	9	2	1	90	2	2	0	1	22.5	157.5	-2.65600863517551	0.847862913412992	0.2	0	0	0	251.510547325714	251.610528040212	0.0999807144980878	0.200028233230114
50508.5	100	418	3	10	2	1	90	2	2	0	2	67.5	112.5	2.21808596730116	0.90291736536326	0.283333333333333	0	0	0	251.893879915355	251.993876721477	0.0999968061223626	0.283351875143126
50579.5	100	419	3	11	2	1	90	2	2	0	2	67.5	112.5	-2.94636953558743	-0.925845513606752	0.183333333333333	0	0	0	252.177223744802	252.277205190854	0.0999814460519701	0.183347023325041
50633.5	100	420	3	12	2	1	90	2	2	0	2	157.5	22.5	-1.6662320053187	-0.742804883929066	0.116666666666667	0	0	0	252.393920753384	252.493887814693	0.0999670613091439	0.116715562529862
50700.25	100	421	3	13	2	1	90	2	2	0	2	157.5	22.5	0.582180842574895	0.0941921638551064	0.166666666666667	0	0	0	252.660583372926	252.760577253299	0.0999938803724945	0.166695558233187
50796	100	422	3	14	2	1	90	2	2	0	1	22.5	67.5	1.7806482006824	0.673984679856406	0.283333333333333	0	0	0	253.04394156253	253.143905698322	0.0999641357921064	0.283364309230819
50862.75	100	423	3	15	2	1	90	2	2	0	2	67.5	22.5	-2.88129430316121	0.550075540749307	0.166666666666667	0	0	0	253.310611983994	253.410573925357	0.09996194136329	0.166706285672262
50962.75	100	424	3	16	2	1	90	2	2	0	2	157.5	22.5	-0.132036755291207	-1.3341426314851	0.3	0	0	0	253.710592381656	253.810574071482	0.099981689825654	0.300018456298858
51046	100	425	3	17	2	1	90	2	2	0	2	67.5	112.5	1.68840341650279	-1.73520800746781	0.233333333333333	0	0	0	254.043933516834	254.143914962886	0.0999814460519701	0.233359445352107
51137.75	100	426	3	18	2	1	90	2	2	0	1	112.5	157.5	-0.172322269354865	2.47338456026012	0.266666666666667	0	0	0	254.410610009218	254.510594381019	0.0999843718018383	0.266695046331733
51229.5	100	427	3	19	2	1	90	2	2	0	1	112.5	67.5	1.20091689033926	-0.178217823963999	0.266666666666667	0	0	0	254.777283331845	254.877265265444	0.0999819335993379	0.266688950825483
51283.5	100	428	3	20	2	1	90	2	2	0	1	22.5	157.5	-1.74740426317001	-2.86771286550562	0.116666666666667	0	0	0	254.993968150113	255.093951790361	0.0999836402479559	0.116702884668484
51350.25	100	429	3	21	2	1	90	2	2	0	1	112.5	157.5	-2.85220836673277	-0.560338342398514	0.166666666666667	0	0	0	255.260642472422	255.360623430926	0.0999809585046023	0.166690682061017
51400.25	100	430	3	22	2	1	90	2	2	0	2	157.5	22.5	-2.14222592610978	-2.5924892922052	0.1	0	0	0	255.460644861683	255.560631427681	0.0999865659978241	0.100021430756897
51454.5	100	431	3	23	2	1	90	2	2	0	1	22.5	67.5	-2.29062799903345	1.87354323324379	0.116666666666667	0	0	0	255.677319196053	255.77730551851	0.0999863224569708	0.116687768371776
51504.5	100	432	3	24	2	1	90	2	2	0	1	22.5	67.5	-1.85278711858674	0.0320050312089744	0.1	0	0	0	255.877328168368	255.977310833521	0.0999826651532203	0.100022649858147
51583.5	100	433	3	25	2	1	90	2	2	0	2	157.5	22.5	-1.34307085984682	-0.752272484088519	0.216666666666667	0	0	0	256.19399930886	256.293981730239	0.0999824213795364	0.216688475338742
51642	100	434	3	26	2	1	90	2	2	0	1	112.5	67.5	-0.374986445292295	-3.11752227818248	0.133333333333333	0	0	0	256.42733608	256.527327278396	0.0999911983963102	0.133354349760339
51737.75	100	435	3	27	2	1	90	2	2	0	2	67.5	22.5	-0.629145396185098	0.43660456126893	0.283333333333333	0	0	0	256.810682323063	256.910662793787	0.0999804707244039	0.283355044666678
51833.75	100	436	3	28	2	1	90	2	2	0	1	22.5	157.5	-2.3557494965351	-1.67845067654386	0.283333333333333	0	0	0	257.194028078578	257.294012937928	0.0999848593492061	0.283365284791216
51883.75	100	437	3	29	2	1	90	2	2	0	2	157.5	112.5	1.32446747435841	-0.324353720810015	0.1	0	0	0	257.39403339359	257.494014839642	0.0999814460519701	0.100020455662161
51983.75	100	438	3	30	2	1	90	2	2	0	1	112.5	67.5	-2.13512509279939	-1.50984524832965	0.3	0	0	0	257.794048899785	257.894024982117	0.0999760823324323	0.300034060142934
52083.75	100	439	3	31	2	1	90	2	2	0	1	22.5	157.5	0.486998437827565	1.92959805051535	0.3	0	0	0	258.194055385189	258.294040732086	0.0999853468965739	0.300030403072014
52167	100	440	3	32	2	1	90	2	2	0	2	157.5	22.5	1.74424713861689	2.4125195854011	0.233333333333333	0	0	0	258.527398958569	258.627378454199	0.0999794956296682	0.233358226483688
52246.25	100	441	3	33	2	1	90	2	2	0	1	22.5	157.5	2.61053208604717	1.27473758686446	0.216666666666667	0	0	0	258.844073512359	258.944042768097	0.0999692557379603	0.21669505815953
52312.75	100	442	3	34	2	1	90	2	2	3	1	112.5	67.5	-2.72068575024868	-1.26577733268988	0.166666666666667	0	0	0	259.110733206151	259.210722454125	0.0999892479740083	0.166690438054502
52408.75	100	443	3	35	2	1	90	2	2	3	2	67.5	112.5	2.73332530255674	-0.0181954137303033	0.283333333333333	0	0	0	259.494080912089	259.594062601915	0.099981689825654	0.283358457963914
52471.25	100	444	3	36	2	1	90	2	2	3	1	22.5	67.5	2.90305757978996	-1.41974746328055	0.15	0	0	0	259.744082070189	259.844066198217	0.0999841280281544	0.150019468273968
52546.25	100	445	3	37	2	1	90	2	2	1	-1	90	45	-1.44814819079203	-0.33194815895555	0.2	0	0	0	260.044096625643	260.144078803016	0.0999821773730218	0.2000304274261
52600.25	100	446	3	38	2	1	90	2	2	3	2	157.5	22.5	-1.85135923742842	-0.167964478432796	0.116666666666667	0	0	0	260.260808506748	260.36075143097	0.0999429242219776	0.116729703731835
52671.25	100	447	3	39	2	1	90	2	2	3	1	22.5	157.5	0.586721883673512	2.27197264461386	0.183333333333333	0	0	0	260.544106743531	260.644092334434	0.0999855909030885	0.183355312561616
52762.75	100	448	3	40	2	1	90	2	2	3	2	67.5	22.5	0.35561543692092	-1.88550981919952	0.266666666666667	0	0	0	260.910783479689	261.010766876163	0.099983396474272	0.266691145254299
52846.25	100	449	3	41	2	1	90	2	2	3	1	112.5	157.5	0.888064708226469	-1.59945721480914	0.233333333333333	0	0	0	261.244141194038	261.344123615185	0.0999824211467057	0.233374317875132
52933.75	100	450	3	42	2	1	90	2	2	0	1	112.5	67.5	1.62779864104068	1.22277363736386	0.25	0	0	0	261.594149398152	261.694129868876	0.0999804707244039	0.250025782966986
52987.75	100	451	3	43	2	1	90	2	2	0	2	67.5	22.5	1.35428174639988	-0.336376277250777	0.116666666666667	0	0	0	261.810818125028	261.910801277729	0.0999831527005881	0.116688256151974
53058.75	100	452	3	44	2	1	90	2	2	0	1	112.5	67.5	-0.893875288597541	0.971882657208359	0.183333333333333	0	0	0	262.094157321844	262.194139255676	0.0999819338321686	0.183356044115499
53125.25	100	453	3	45	2	1	90	2	2	0	1	22.5	67.5	-1.41464699015333	-2.92881842382509	0.166666666666667	0	0	0	262.360835057683	262.460805776063	0.0999707183800638	0.166695802006871
53187.75	100	454	3	46	2	1	90	2	2	0	1	112.5	157.5	-1.75771382940621	2.32720417055236	0.15	0	0	0	262.610827682307	262.710816686507	0.0999890042003244	0.150021906243637
53258.75	100	455	3	47	2	1	90	2	2	0	1	22.5	157.5	-0.0968859538640494	-0.0960502749974492	0.183333333333333	0	0	0	262.894169317326	262.994151251158	0.0999819338321686	0.183352630818263
53346.25	100	456	3	48	2	1	90	2	2	0	1	22.5	157.5	-1.58427022558813	1.21725862801215	0.25	0	0	0	263.244183860719	263.344167500967	0.0999836402479559	0.250032609561458
53417	100	457	3	49	2	1	90	2	2	0	2	67.5	22.5	1.94246415080602	2.50987861491411	0.183333333333333	0	0	0	263.527526958613	263.627504747361	0.0999777887482196	0.183359457645565
53467	100	458	3	50	2	1	90	2	2	0	1	22.5	157.5	-2.97592421489728	-1.17201331475626	0.1	0	0	0	263.727533004945	263.827509331051	0.0999763261061162	0.100028257584199
53533.75	100	459	3	51	2	1	90	2	2	0	1	112.5	67.5	-2.29523276612867	-0.3019132266377	0.166666666666667	0	0	0	263.994202938629	264.094185847556	0.0999829089269042	0.166693607578054
53604.5	100	460	3	52	2	1	90	2	2	0	1	22.5	67.5	-1.01628748946085	2.29641957215681	0.183333333333333	0	0	0	264.277541891905	264.377521143761	0.0999792518559843	0.183356044348329
53679.5	100	461	3	53	2	1	90	2	2	0	2	157.5	112.5	-2.15695547722291	2.2550586350095	0.2	0	0	0	264.577570588328	264.677527897293	0.0999573089648038	0.200049444567412
53758.75	100	462	3	54	2	1	90	2	2	0	1	22.5	67.5	0.160273133810495	-2.60618045465056	0.216666666666667	0	0	0	264.894224662101	264.994206108153	0.0999814460519701	0.216696764808148
53837.75	100	463	3	55	2	1	90	2	2	0	2	67.5	112.5	-2.20920218007614	2.66623910673488	0.216666666666667	0	0	0	265.210900678998	265.310887732543	0.0999870535451919	0.216694570844993
53921.25	100	464	3	56	2	1	90	2	2	0	1	112.5	67.5	1.38505658013687	0.692314543854161	0.233333333333333	0	0	0	265.544241082855	265.644223260228	0.0999821773730218	0.233353350311518
53983.75	100	465	3	57	2	1	90	2	2	0	2	67.5	112.5	-0.86206244642068	1.59468467484874	0.15	0	0	0	265.794245654251	265.894228075398	0.0999824211467057	0.150022394023836
54067	100	466	3	58	2	1	90	2	2	3	1	22.5	157.5	2.17769024663292	-1.47611965931409	0.233333333333333	0	0	0	266.127592396922	266.227574086981	0.0999816900584847	0.233364321524277
54125.25	100	467	3	59	2	1	90	2	2	3	1	112.5	67.5	-2.62233474764381	-1.62335971946622	0.133333333333333	0	0	0	266.360930387164	266.460913783638	0.099983396474272	0.133356300182641
54225.25	100	468	3	60	2	1	90	2	2	3	2	67.5	22.5	1.76550994167236	2.08222007863727	0.3	0	0	0	266.760986365844	266.860926364316	0.0999399984721094	0.300072582205757
54287.75	100	469	3	61	2	1	90	2	2	1	-1	90	135	1.09857473669102	2.45212630594724	0.15	0	0	0	267.010946807684	267.110929960385	0.0999831527005881	0.150020443368703
54383.75	100	470	3	62	2	1	90	2	2	3	1	112.5	157.5	-0.451455213002869	-0.798206108896371	0.283333333333333	1	0.375277363928035	1	267.394291587872	267.494272546377	0.0999809585046023	0.283361627487466
54475.25	100	471	3	63	2	1	90	2	2	3	2	67.5	112.5	2.24654355664658	-2.62876495795364	0.266666666666667	0	0	0	267.760970030678	267.860949282302	0.0999792516231537	0.266697484301403
54525.25	100	472	3	64	2	1	90	2	2	3	2	157.5	22.5	-1.51186413261987	-2.10736254423576	0.1	0	0	0	267.960976077011	268.060955328867	0.0999792518559843	0.100026794709265
54612.75	100	473	3	65	2	1	90	2	2	3	1	22.5	67.5	-0.687482094811187	1.55046272262386	0.25	0	0	0	268.310984768905	268.410965483636	0.0999807147309184	0.250029440037906
54671.25	100	474	3	66	2	1	90	2	2	0	1	22.5	67.5	-2.02782176482168	1.99971328319151	0.133333333333333	0	0	0	268.544327147538	268.644302986097	0.0999758385587484	0.133361663902178
54742	100	475	3	67	2	1	90	2	2	0	2	157.5	112.5	-2.02815508784142	0.332047979355956	0.183333333333333	0	0	0	268.827664881712	268.927651203936	0.0999863222241402	0.183361895615235
54808.75	100	476	3	68	2	1	90	2	2	0	2	67.5	112.5	0.588895809448097	-2.97691485159419	0.166666666666667	0	0	0	269.09434993146	269.194337472785	0.0999875413253903	0.166698727523908
54908.75	100	477	3	69	2	1	90	2	2	0	1	22.5	67.5	1.98019949579506	-1.6206313920745	0.3	0	0	0	269.494362268364	269.594345177291	0.0999829089269042	0.300024795578793
55000.25	100	478	3	70	2	1	90	2	2	0	2	157.5	22.5	-1.20465246435726	0.523435026512454	0.266666666666667	0	0	0	269.861040710937	269.961017524591	0.099976813653484	0.266695533646271
55075.25	100	479	3	71	2	1	90	2	2	0	2	67.5	22.5	1.31614030545234	-0.161251899693272	0.2	0	0	0	270.161047464469	270.261068163905	0.100020699435845	0.200029939878732
55133.75	100	480	3	72	2	1	90	2	2	0	2	157.5	22.5	-1.31150345232436	1.87270446336455	0.133333333333333	0	0	0	270.394389111781	270.494359830162	0.0999707183800638	0.1333209478762
55192	100	481	3	73	2	1	90	2	2	0	2	67.5	112.5	2.6872276148821	-2.96651163366015	0.133333333333333	0	0	0	270.627711497946	270.727724151686	0.100012653740123	0.133351667784154
55287.75	100	482	3	74	2	1	90	2	2	0	2	157.5	112.5	0.241632739921259	1.10726321481529	0.283333333333333	0	0	0	271.011087485822	271.111077709123	0.0999902233015746	0.283363334136084
55371.25	100	483	3	75	2	1	90	2	2	0	2	67.5	22.5	2.92593436136461	2.51874684597994	0.233333333333333	0	0	0	271.34441082296	271.44441518723	0.100004364270717	0.233333113836125
55425.5	100	484	3	76	2	1	90	2	2	0	2	67.5	112.5	0.47366400239754	-3.01499153405195	0.116666666666667	0	0	0	271.56109222793	271.66106587206	0.0999736441299319	0.116677040699869
55483.75	100	485	3	77	2	1	90	2	2	0	1	22.5	157.5	1.54642050979181	0.00600376805900504	0.133333333333333	0	0	0	271.794442652259	271.894406544045	0.0999638917855918	0.133376780198887
55575.5	100	486	3	78	2	1	90	2	2	0	2	157.5	112.5	1.98034011346849	2.13550869629475	0.266666666666667	0	0	0	272.161144744605	272.261074259179	0.099929514573887	0.266738200560212
55667	100	487	3	79	2	1	90	2	2	0	2	67.5	112.5	-0.970324785580192	-2.18471891842774	0.266666666666667	0	0	0	272.527792954817	272.627756359056	0.099963404238224	0.266718695638701
55750.5	100	488	3	80	2	1	90	2	2	0	1	22.5	67.5	-0.486173373905505	-2.51846009162003	0.233333333333333	0	0	0	272.861125069205	272.961119680898	0.0999946116935462	0.23336871014908
55817	100	489	3	81	2	1	90	2	2	0	1	22.5	157.5	1.7607253643953	2.05214142854563	0.166666666666667	0	0	0	273.127807924757	273.227774498519	0.0999665737617761	0.166688243858516
55904.5	100	490	3	82	2	1	90	2	2	0	1	112.5	157.5	-0.897073721268068	-0.429819839582404	0.25	0	0	0	273.477819542168	273.57778367796	0.0999641357921064	0.250045043649152
55963	100	491	3	83	2	1	90	2	2	3	1	112.5	67.5	0.164684545578031	-1.76192700581857	0.133333333333333	0	0	0	273.711161677027	273.811138003133	0.0999763261061162	0.133377999067307
56058.75	100	492	3	84	2	1	90	2	2	3	2	157.5	112.5	-0.445408498591811	-2.1302499078416	0.283333333333333	0	0	0	274.094476224855	274.19446376618	0.0999875413253903	0.283338221721351
56150.5	100	493	3	85	2	1	90	2	2	3	2	157.5	22.5	2.85866716745326	2.97154379245281	0.266666666666667	0	0	0	274.461190751521	274.561135869939	0.0999451184179634	0.266726985340938
56233.75	100	494	3	86	2	1	90	2	2	2	-1	45	90	2.74776227990087	0.41998381248312	0.233333333333333	0	0	0	274.794495802838	274.894474566914	0.0999787640757859	0.233359932899475
56304.5	100	495	3	87	2	1	90	2	2	3	1	22.5	67.5	0.367166480215359	-2.04105875684964	0.183333333333333	0	0	0	275.077832317911	275.177827904932	0.0999955870211124	0.183357750996947
56383.75	100	496	3	88	2	1	90	2	2	3	1	112.5	157.5	-1.7662080638337	-0.344761307067358	0.216666666666667	0	0	0	275.394534422318	275.494501239853	0.09996681753546	0.216706517385319
56433.75	100	497	3	89	2	1	90	2	2	3	1	22.5	157.5	0.589825321727536	0.394036762342791	0.1	0	0	0	275.594524133485	275.694494608091	0.0999704746063799	0.100022893631831
56508.75	100	498	3	90	2	1	90	2	2	3	2	67.5	112.5	-0.713166079966935	-2.68279037816547	0.2	0	0	0	275.894534788094	275.994505018927	0.099970230832696	0.200040180003271
56588	100	499	3	91	2	1	90	2	2	0	1	112.5	157.5	0.605961176828205	0.56617161299288	0.216666666666667	0	0	0	276.211201052414	276.311182498466	0.0999814460519701	0.216696033487096
56658.75	100	500	3	92	2	1	90	2	2	0	2	157.5	22.5	0.615135921907891	2.93821873731813	0.183333333333333	0	0	0	276.494541224558	276.594522183063	0.0999809585046023	0.183358726091683
56742	100	501	3	93	2	1	90	2	2	0	1	112.5	157.5	-0.952642066898677	3.12814070845	0.233333333333333	0	0	0	276.827880653087	276.927863074467	0.0999824213795364	0.233358470024541
56829.5	100	502	3	94	2	1	90	2	2	0	2	157.5	112.5	1.56746288906174	0.314491669006537	0.25	0	0	0	277.177891782951	277.277871522354	0.0999797394033521	0.250028708484024
56913	100	503	3	95	2	1	90	2	2	0	1	22.5	157.5	1.82568706900376	0.0390724757234264	0.233333333333333	0	0	0	277.51123462501	277.611217046389	0.0999824213795364	0.233363102655858
57000.5	100	504	3	96	2	1	90	2	2	0	2	157.5	22.5	-0.776577902278988	3.05244244132547	0.25	0	0	0	277.861239415826	277.961225981824	0.0999865659978241	0.25002236943692
57096.25	100	505	3	97	2	1	90	2	2	0	1	112.5	67.5	-2.75940677554589	1.8629547305372	0.283333333333333	0	0	0	278.244582976913	278.344566129614	0.0999831527005881	0.28335699508898
57188	100	506	3	98	2	1	90	2	2	0	1	22.5	67.5	-0.472032257802808	-0.194715277145137	0.266666666666667	0	0	0	278.611261419719	278.711244816193	0.099983396474272	0.266695290105417
57271.25	100	507	3	99	2	1	90	2	2	0	2	157.5	112.5	-0.422580347120832	-0.122071234963632	0.233333333333333	0	0	0	278.944609137718	279.04458522005	0.0999760823324323	0.233364321524277
57367	100	508	3	100	2	1	90	2	2	0	2	157.5	22.5	-2.4054239961637	0.0892098837617987	0.283333333333333	0	0	0	279.327947335085	279.427934388863	0.0999870537780225	0.283362115034834
57467	100	509	3	101	2	1	90	2	2	0	2	157.5	112.5	2.99380648137693	-0.74369897557689	0.3	0	0	0	279.727960159536	279.82793941116	0.0999792516231537	0.300025770673528
57542	100	510	3	102	2	1	90	2	2	0	1	22.5	67.5	-1.02525141037874	-0.188340945658969	0.2	0	0	0	280.02796520642	280.127948115347	0.0999829089269042	0.200025795260444
57642	100	511	3	103	2	1	90	2	2	0	2	67.5	22.5	1.71907321810218	1.96880698045959	0.3	0	0	0	280.427981687943	280.527960695792	0.0999790078494698	0.300033572595567
57729.5	100	512	3	104	2	1	90	2	2	0	2	67.5	112.5	-1.98776097361806	-0.422497851868548	0.25	0	0	0	280.777989160502	280.877987673273	0.0999985127709806	0.25002846471034
57829.5	100	513	3	105	2	1	90	2	2	0	1	112.5	157.5	-1.46633792039372	-1.0077304953546	0.3	0	0	0	281.178012225078	281.27799318335	0.0999809582717717	0.300024551805109
57879.5	100	514	3	106	2	1	90	2	2	0	2	67.5	22.5	-0.828948606153269	-2.88138459821135	0.1	0	0	0	281.378007787745	281.477986795595	0.0999790078494698	0.100014604395255
57942	100	515	3	107	2	1	90	2	2	0	1	22.5	157.5	-1.83017005668415	1.81205389058529	0.15	0	0	0	281.62801577244	281.727992342319	0.0999765698798001	0.150028976844624
58021.25	100	516	3	108	2	1	90	2	2	0	2	67.5	22.5	0.198225555432102	0.15257799320806	0.216666666666667	0	0	0	281.944683987182	282.044671528507	0.0999875413253903	0.216691644862294
58100.5	100	517	3	109	2	1	90	2	2	0	1	112.5	67.5	2.92141795646341	-2.01014751379189	0.216666666666667	0	0	0	282.261398038361	282.361343888333	0.0999458499718457	0.216726509854198
58196.25	100	518	3	110	2	1	90	2	2	0	1	112.5	157.5	-2.38404180425261	0.083050650993528	0.283333333333333	0	0	0	282.644713561283	282.744688912295	0.0999753510113806	0.283369672950357
58254.5	100	519	3	111	2	1	90	2	2	0	1	112.5	157.5	-0.0206624804491522	-1.16080539451381	0.133333333333333	0	0	0	282.878044480924	282.978025927208	0.0999814462848008	0.133355568628758
58354.5	100	520	3	112	2	1	90	2	2	3	2	157.5	22.5	0.974321863752474	-1.49249867454571	0.3	0	0	0	283.278056817828	283.378037776332	0.0999809585046023	0.300030890619382
58417	100	521	3	113	2	1	90	2	2	3	1	22.5	67.5	1.19144520082732	2.94856024753407	0.15	0	0	0	283.528070654022	283.628049418097	0.0999787640757859	0.150032877689227
58496.25	100	522	3	114	2	1	90	2	2	3	1	22.5	157.5	1.3289479586574	1.71894104109061	0.216666666666667	0	0	0	283.844738137443	283.944718851941	0.0999807144980878	0.216688719345257
58583.75	100	523	3	115	2	1	90	2	2	2	-1	45	90	-1.4683679393318	-2.43134545528834	0.25	0	0	0	284.19475243683	284.29472608096	0.0999736441299319	0.250033584889024
58667	100	524	3	116	2	1	90	2	2	3	2	157.5	112.5	0.26578729299743	0.125466778575035	0.233333333333333	0	0	0	284.52808723296	284.628100130474	0.100012897513807	0.233361152000725
58725.5	100	525	3	117	2	1	90	2	2	3	2	67.5	112.5	-1.29060269399598	1.99618901266482	0.133333333333333	0	0	0	284.761425466975	284.861425686395	0.100000219419599	0.133325336501002
58817	100	526	3	118	2	1	90	2	2	3	2	67.5	22.5	2.37993865304293	0.812343696781849	0.266666666666667	0	0	0	285.128106347751	285.228086087154	0.0999797394033521	0.266680661356077
58892	100	527	3	119	2	1	90	2	2	3	1	112.5	157.5	0.289314814454661	-1.73264647774262	0.2	0	0	0	285.428112613503	285.528092109133	0.0999794956296682	0.200026526348665
58979.5	100	528	3	120	2	1	90	2	2	0	2	67.5	22.5	1.44118218990762	1.79123284252699	0.25	0	0	0	285.778122036951	285.8781068963	0.0999848593492061	0.250029927818105
59038	100	529	3	121	2	1	90	2	2	0	2	157.5	112.5	-0.0374792168642379	-2.99930118158847	0.133333333333333	0	0	0	286.01146124606	286.111442448338	0.0999812022782862	0.133354349760339
59113	100	530	3	122	2	1	90	2	2	0	2	157.5	22.5	3.00792110505735	0.356055603955972	0.2	0	0	0	286.311470925342	286.411458466668	0.0999875413253903	0.200028477003798
59179.75	100	531	3	123	2	1	90	2	2	0	2	157.5	112.5	-0.238630382795238	-1.43446747717898	0.166666666666667	0	0	0	286.578146710293	286.67812961922	0.0999829089269042	0.166688243625686
59229.75	100	532	3	124	2	1	90	2	2	0	1	112.5	157.5	1.06272252426156	0.745192467741883	0.1	0	0	0	286.77815690171	286.878132496262	0.0999755945522338	0.100027282489464
59308.75	100	533	3	125	2	1	90	2	2	0	2	157.5	112.5	1.33954284434416	1.10180402158095	0.216666666666667	0	0	0	287.094829992624	287.194807537831	0.0999775452073663	0.216697496362031
59367.25	100	534	3	126	2	1	90	2	2	0	2	67.5	22.5	-3.0898624292192	3.0814838459542	0.133333333333333	0	0	0	287.328164813342	287.428152598441	0.0999877850990742	0.133357275510207
59442.25	100	535	3	127	2	1	90	2	2	0	2	67.5	112.5	2.63354535914058	-1.30499207104801	0.2	0	0	0	287.628173517296	287.728152769152	0.0999792518559843	0.200020918855444
59504.75	100	536	3	128	2	1	90	2	2	0	2	157.5	22.5	-1.07000392838418	2.15421959351283	0.15	0	0	0	287.878179795342	287.978165386245	0.0999855909030885	0.150027026189491
59558.75	100	537	3	129	2	1	90	2	2	0	1	112.5	67.5	-2.20225872614045	-2.005665148771	0.116666666666667	0	0	0	288.094867539359	288.194833625341	0.0999660859815776	0.116702153114602
59608.75	100	538	3	130	2	1	90	2	2	0	1	112.5	67.5	1.54278598529042	2.86220746766915	0.1	0	0	0	288.294853349682	288.394841378555	0.0999880288727582	0.100019724341109
59658.75	100	539	3	131	2	1	90	2	2	0	2	67.5	112.5	-2.89904532727867	0.788573455816831	0.1	0	0	0	288.494860127568	288.594866929809	0.100006802240387	0.100018749013543
59713	100	540	3	132	2	1	90	2	2	0	1	112.5	157.5	-1.69772966477346	-2.52494638812326	0.116666666666667	0	0	0	288.711537143914	288.811517127091	0.099979983177036	0.116670214105397
59813	100	541	3	133	2	1	90	2	2	0	2	67.5	112.5	2.69471948921936	-0.17741244690728	0.3	0	0	0	289.111544604413	289.211525319144	0.0999807147309184	0.300027477322146
59883.75	100	542	3	134	2	1	90	2	2	0	1	112.5	157.5	0.293283078022958	-1.39329757073876	0.183333333333333	0	0	0	289.394902087282	289.494880120037	0.0999780327547342	0.18337676813826
59946.25	100	543	3	135	2	1	90	2	2	0	2	67.5	22.5	2.9073303080994	0.18163418558177	0.15	0	0	0	289.644894711906	289.744874938857	0.09998022695072	0.150014591868967
60038	100	544	3	136	2	1	90	2	2	0	2	67.5	22.5	-2.30171938458633	2.30428419814501	0.266666666666667	0	0	0	290.011568522314	290.111553381663	0.0999848593492061	0.266693583456799
60100.5	100	545	3	137	2	1	90	2	2	0	2	157.5	112.5	-1.29619783896694	3.06424591792349	0.15	0	0	0	290.261576507008	290.36156087881	0.0999843718018383	0.150023125344887
60175.5	100	546	3	138	2	1	90	2	2	0	1	112.5	67.5	-2.96049670095408	2.24636508133309	0.2	0	0	0	290.561584235635	290.661569826538	0.0999855909030885	0.200023356825113
60238	100	547	3	139	2	1	90	2	2	0	1	22.5	67.5	2.38643480323671	-1.83850481860129	0.15	0	0	0	290.811591976788	290.911578542786	0.0999865659978241	0.150022150250152
60321.25	100	548	3	140	2	1	90	2	2	3	1	22.5	157.5	-3.04354406367299	0.897243739220552	0.233333333333333	0	0	0	291.144934087293	291.244914801791	0.0999807144980878	0.233355544507504
60383.75	100	549	3	141	2	1	90	2	2	3	2	157.5	22.5	2.25403417995598	1.87937798721574	0.15	0	0	0	291.394947679481	291.494930344634	0.0999826651532203	0.150032877689227
60442.25	100	550	3	142	2	1	90	2	2	3	2	157.5	112.5	-2.40218442562688	-2.68219882224482	0.133333333333333	0	0	0	291.628285425948	291.728259801399	0.0999743754509836	0.133355081314221
60496.25	100	551	3	143	2	1	90	2	2	3	1	22.5	67.5	2.74843217877051	-2.4453660052946	0.116666666666667	0	0	0	291.844954396598	291.944937793072	0.099983396474272	0.116694595199078
61650.5	100	552	4	0	1	2	0	1	2	3	2	157.5	22.5	-2.37893929629205	-0.681057366930296	0.2	0	0	0	296.461762972642	296.561748075765	0.09998510312289	-1
61725.5	100	553	4	1	1	2	0	1	2	3	1	22.5	67.5	-2.05023317370121	-1.60679046755662	0.2	0	0	0	296.761785086012	296.861740932101	0.0999558460898697	0.200037010246888
61800.5	100	554	4	2	1	2	0	1	2	3	1	112.5	67.5	-1.21191966670003	-1.2667348752722	0.2	0	0	0	297.061807443388	297.161746710539	0.0999392671510577	0.200066511286423
61875.5	100	555	4	3	1	2	0	1	2	3	1	112.5	157.5	-1.8129103235501	0.114439522124152	0.2	0	0	0	297.361808589427	297.461752976291	0.099944386864081	0.200061878887936
61950.5	100	556	4	4	1	2	0	1	2	0	1	112.5	67.5	2.07006152337664	2.95732585169532	0.2	0	0	0	297.661777308676	297.761756804306	0.0999794956296682	0.20002433238551
62025.5	100	557	4	5	1	2	0	1	2	0	1	22.5	67.5	1.76429789495188	-0.00416141595645625	0.2	0	0	0	297.961784305982	298.061776967254	0.0999926612712443	0.200027501676232
62100.5	100	558	4	6	1	2	0	1	2	0	1	112.5	67.5	-0.937805084968529	-1.18034921749949	0.2	0	0	0	298.261789352866	298.36177567509	0.0999863222241402	0.200012385612354
62175.5	100	559	4	7	1	2	0	1	2	0	1	112.5	157.5	2.36076804913016	-3.02397412707143	0.2	0	0	0	298.561812441563	298.661787304794	0.0999748632311821	0.200036766473204
62250.5	100	560	4	8	1	2	0	1	2	0	2	157.5	112.5	-1.03739632210459	0.567878404046868	0.2	0	0	0	298.861847964581	298.961793570779	0.0999456061981618	0.200060659786686
62325.5	100	561	4	9	1	2	0	1	2	0	2	157.5	22.5	-0.156117898578308	-0.627375501780264	0.2	0	0	0	299.161820097128	299.261795935687	0.0999758385587484	0.200026526348665
62400.5	100	562	4	10	1	2	0	1	2	0	2	157.5	112.5	0.486750626294074	-2.78926879367181	0.2	0	0	0	299.461824656464	299.561820731033	0.0999960745684803	0.200028720777482
62475.5	100	563	4	11	1	2	0	1	2	0	1	22.5	67.5	-0.410426557974619	0.269882463752273	0.2	0	0	0	299.761831897544	299.861814806471	0.0999829089269042	0.200011166511104
62550.5	100	564	4	12	1	2	0	1	2	0	2	67.5	112.5	2.10237067027639	3.13045157154194	0.2	0	0	0	300.061885706382	300.161829361925	0.0999436555430293	0.200070899911225
62625.5	100	565	4	13	1	2	0	1	2	0	1	22.5	67.5	1.19388969436115	3.13073028009667	0.2	0	0	0	300.361848574132	300.461830020184	0.0999814460519701	0.200019212206826
62700.5	100	566	4	14	1	2	0	1	2	0	2	157.5	22.5	-1.73844326651701	-1.04485291307207	0.2	0	0	0	300.66185752186	300.761836042395	0.0999785205349326	0.200027501676232
62775.5	100	567	4	15	1	2	0	1	2	0	2	67.5	112.5	-2.9617501568536	2.9344592409365	0.2	0	0	0	300.961869639345	301.061849134974	0.0999794956296682	0.200033596949652
62850.5	100	568	4	16	1	2	0	1	2	0	1	112.5	157.5	-1.24943621080972	-2.98937391156941	0.2	0	0	0	301.261893703369	301.361892947461	0.0999992440920323	0.200044568395242
62925.5	100	569	4	17	1	2	0	1	2	0	1	22.5	67.5	-0.50454578361274	0.70221450393012	0.2	0	0	0	301.561900944449	301.661892630626	0.0999916861765087	0.200007996987551
63000.5	100	570	4	18	1	2	0	1	2	0	1	22.5	157.5	0.912595905098412	2.41690385831183	0.2	0	0	0	301.861910379957	301.9619008468	0.0999904668424278	0.200017749331892
63075.5	100	571	4	19	1	2	0	1	2	0	2	157.5	112.5	2.3300101699253	0.727157878430524	0.2	0	0	0	302.161918108584	302.261908331886	0.0999902233015746	0.200017261784524
63150.5	100	572	4	20	1	2	0	1	2	0	2	157.5	22.5	1.1169267568089	-2.99213380255373	0.2	0	0	0	302.461923643015	302.561923374888	0.0999997318722308	0.200015311129391
63225.5	100	573	4	21	1	2	0	1	2	0	2	67.5	112.5	-0.683249966624693	2.59596360908697	0.2	0	0	0	302.761937710922	302.861917206552	0.0999794956296682	0.200014336034656
63300.5	100	574	4	22	1	2	0	1	2	0	2	157.5	112.5	0.078121923053581	2.6575606493218	0.2	0	0	0	303.061954948353	303.161931518232	0.0999765698798001	0.20003774180077
63375.5	100	575	4	23	1	2	0	1	2	0	2	157.5	22.5	-1.9167315868857	1.19944743736875	0.2	0	0	0	303.361990227597	303.461947292555	0.0999570649582893	0.200058709364384
63450.5	100	576	4	24	1	2	0	1	2	0	1	22.5	157.5	-2.29178968235552	-2.66225234525169	0.2	0	0	0	303.66195919062	303.761949413689	0.0999902230687439	0.200011898064986
63525.5	100	577	4	25	1	2	0	1	2	0	1	22.5	157.5	-0.921558850934258	-2.4263603330616	0.2	0	0	0	303.961968382122	304.061957142549	0.0999887604266405	0.200018968433142
63600.5	100	578	4	26	1	2	0	1	2	0	2	157.5	112.5	0.307253492539141	0.651373146046092	0.2	0	0	0	304.261974891881	304.361965115182	0.0999902233015746	0.200017749331892
63675.5	100	579	4	27	1	2	0	1	2	0	1	112.5	67.5	0.880531654133045	2.78126784015	0.2	0	0	0	304.561984814936	304.661976257339	0.0999914424028248	0.200019699754193
63750.5	100	580	4	28	1	2	0	1	2	0	2	67.5	22.5	1.33758847760871	0.862672891891505	0.2	0	0	0	304.861971819773	304.961950584082	0.0999787643086165	0.199995562434196
63825.5	100	581	4	29	1	2	0	1	2	3	1	22.5	157.5	-2.61737104852171	-3.10138213376453	0.2	0	0	0	305.161981742829	305.261960750911	0.0999790080823004	0.200031158747151
63900.5	100	582	4	30	1	2	0	1	2	3	1	112.5	157.5	-0.224056224634241	-0.379472601997752	0.2	0	0	0	305.461986058392	305.561976525467	0.0999904670752585	0.200025307480246
63975.5	100	583	4	31	1	2	0	1	2	3	1	112.5	67.5	-0.0295939996672052	-2.32103871629286	0.2	0	0	0	305.761996225221	305.861979134148	0.0999829089269042	0.200019699754193
64050.5	100	584	4	32	1	2	0	1	2	1	-1	0	135	-0.264221842150239	-0.426732619468256	0.2	0	0	0	306.062047352083	306.16198881343	0.0999414613470435	0.200068217935041
64125.5	100	585	4	33	1	2	0	1	2	3	2	157.5	22.5	0.562534955305745	-0.00572239665154362	0.2	0	0	0	306.362053374294	306.461997761158	0.099944386864081	0.200064560864121
64200.5	100	586	4	34	1	2	0	1	2	3	2	67.5	22.5	-2.63859523230118	0.640520799824188	0.2	0	0	0	306.662022824865	306.762002808042	0.099979983177036	0.200025063706562
64275.5	100	587	4	35	1	2	0	1	2	3	1	22.5	67.5	-1.34575931309101	1.94255354642513	0.2	0	0	0	306.962030065944	307.062016875949	0.0999868100043386	0.200027257902548
64350.5	100	588	4	36	1	2	0	1	2	3	2	67.5	112.5	1.89151724091906	1.6021637661717	0.2	0	0	0	307.262041208101	307.36201948463	0.0999782765284181	0.20002433215268
64425.5	100	589	4	37	1	2	0	1	2	0	1	112.5	157.5	0.0254899866659533	0.0278006895121359	0.2	0	0	0	307.562045523431	307.662027944811	0.0999824213795364	0.200026038801298
