onset	duration	total_event_number	stream_number	event_num_per_stream	timing_predictability	target_col	target_ori	n_targets	n_distractors	is_target	ori_pair_num	att_ori	unatt_ori	gabor_phase_att	gabor_phase_unatt	blank_dur	response	rt	correct	time_stimon	time_stimoff	stim_dur	ISI_dur
18247.75	100	0	0	0	2	1	0	1	1	3	2	157.5	112.5	-0.523596485827087	-1.02173016913175	0.25	1	0	0	62.4316795484629	62.5316763545852	0.0999968061223626	-1
18343.5	100	1	0	1	2	1	0	1	1	3	1	112.5	67.5	1.11599293492758	2.52094089329375	0.283333333333333	0	0	0	62.8150294485968	62.9149831004906	0.0999536518938839	0.283353094011545
18401.75	100	2	0	2	2	1	0	1	1	3	1	112.5	157.5	-2.08672652647141	-0.650492194963156	0.133333333333333	0	0	0	63.0483452519402	63.1483254791237	0.0999802271835506	0.133362151449546
18493.5	100	3	0	3	2	1	0	1	1	3	1	22.5	157.5	1.43465247591874	-2.41416752905307	0.266666666666667	0	0	0	63.4150161365978	63.5150129427202	0.0999968061223626	0.266690657474101
18543.5	100	4	0	4	2	1	0	1	1	0	1	112.5	67.5	1.04781123485217	-1.36540543787836	0.1	0	0	0	63.615032910835	63.7150177701842	0.0999848593492061	0.100019968114793
18622.75	100	5	0	5	2	1	0	1	1	0	2	67.5	112.5	2.66823817863596	0.0233459027774723	0.216666666666667	0	0	0	63.9317286759615	64.0317142668646	0.0999855909030885	0.21671090577729
18714.25	100	6	0	6	2	1	0	1	1	0	1	22.5	157.5	1.85550633944386	-2.85167817030551	0.266666666666667	0	0	0	64.2984071187675	64.3983615019824	0.0999543832149357	0.266692851902917
18789.25	100	7	0	7	2	1	0	1	1	0	1	22.5	67.5	1.47512782624178	-2.09657655095405	0.2	0	0	0	64.5984126531985	64.6983967812266	0.0999841280281544	0.20005115121603
18868.5	100	8	0	8	2	1	0	1	1	0	1	22.5	67.5	-0.644627373104291	-2.43695282514543	0.216666666666667	0	0	0	64.9150586815085	65.0150413464289	0.0999826649203897	0.216661900281906
18968.5	100	9	0	9	2	1	0	1	1	0	2	157.5	22.5	-1.96218105301256	3.0030041233597	0.3	0	0	0	65.315079551423	65.4150602661539	0.0999807147309184	0.300038204994053
19060.25	100	10	0	10	2	1	0	1	1	0	1	112.5	157.5	1.59314688471207	2.53830086947881	0.266666666666667	0	0	0	65.6817477541044	65.7817345641088	0.0999868100043386	0.266687487950549
19110.25	100	11	0	11	2	1	0	1	1	0	1	22.5	157.5	-2.16537607267548	1.77881909094869	0.1	0	0	0	65.8817833017092	65.9817347591743	0.0999514574650675	0.100048737600446
19210.25	100	12	0	12	2	1	0	1	1	0	1	112.5	157.5	-0.0738912092401613	-0.853414937961643	0.3	0	0	0	66.2817688193172	66.3817541664466	0.0999853471294045	0.300034060142934
19297.75	100	13	0	13	2	1	0	1	1	0	1	112.5	67.5	-0.90690446030485	2.95516880606987	0.25	0	0	0	66.6317953092512	66.7317855325527	0.0999902233015746	0.250041142804548
19356	100	14	0	14	2	1	0	1	1	0	2	157.5	112.5	-0.770895301493749	-1.49635258393373	0.133333333333333	0	0	0	66.8651354936883	66.9657822961453	0.100646802457049	0.133349961135536
19435.25	100	15	0	15	2	1	0	1	1	0	2	67.5	22.5	0.829241805636123	0.646694710088186	0.216666666666667	0	0	0	67.1817893236876	67.281774670817	0.0999853471294045	0.216007027542219
19493.5	100	16	0	16	2	1	0	1	1	0	1	22.5	157.5	0.554672581616309	0.317409036171417	0.133333333333333	0	0	0	67.4151270699222	67.5151068093255	0.0999797394033521	0.133352399105206
19560.25	100	17	0	17	2	1	0	1	1	0	2	157.5	112.5	-2.40211758335714	1.22296172353923	0.166666666666667	0	0	0	67.6818294303957	67.781812095549	0.0999826651532203	0.166722621070221
19651.75	100	18	0	18	2	1	0	1	1	0	2	67.5	22.5	2.40186632380486	1.02549390767127	0.266666666666667	0	0	0	68.0485093358438	68.1484929763246	0.0999836404807866	0.266697240294889
19722.75	100	19	0	19	2	1	0	1	1	0	2	67.5	22.5	-1.81397962264721	-2.96105262959006	0.183333333333333	0	0	0	68.3318261024542	68.4318348551169	0.100008752662688	0.183333126129583
19776.75	100	20	0	20	2	1	0	1	1	0	1	112.5	157.5	1.8750673623829	-1.83313873373811	0.116666666666667	0	0	0	68.5484997055028	68.6484792011324	0.0999794956296682	0.11666485038586
19835.25	100	21	0	21	2	1	0	1	1	0	1	22.5	67.5	1.71444606840165	-2.20927522680239	0.133333333333333	0	0	0	68.7818379392847	68.8818196293432	0.0999816900584847	0.13335873815231
19910.25	100	22	0	22	2	1	0	1	1	0	1	112.5	157.5	0.30834251531021	1.95942386039685	0.2	0	0	0	69.0818449365906	69.1818278455175	0.0999829089269042	0.200025307247415
19976.75	100	23	0	23	2	1	0	1	1	0	1	112.5	67.5	1.58794432861199	1.56523249868879	0.166666666666667	0	0	0	69.3485195026733	69.4485007049516	0.0999812022782862	0.166691657155752
20035.25	100	24	0	24	2	1	0	1	1	0	2	67.5	112.5	1.77577027111935	2.72766432915177	0.133333333333333	0	0	0	69.5818577366881	69.6818382076453	0.0999804709572345	0.133357031736523
20101.75	100	25	0	25	2	1	0	1	1	0	1	22.5	67.5	-2.03850060048981	2.07495431070083	0.166666666666667	0	0	0	69.8485330343246	69.9485161870252	0.0999831527005881	0.166694826679304
20168.5	100	26	0	26	2	1	0	1	1	0	1	22.5	157.5	2.08539801316005	0.911739798672858	0.166666666666667	0	0	0	70.1152076004073	70.2151866082568	0.0999790078494698	0.166691413382068
20239.25	100	27	0	27	2	1	0	1	1	0	1	112.5	157.5	-2.12175121820554	-0.778292185684665	0.183333333333333	0	0	0	70.3985455781221	70.49853555765	0.0999899795278907	0.183358969865367
20326.75	100	28	0	28	2	1	0	1	1	0	2	157.5	22.5	2.84285336541776	-0.5247047782075	0.25	0	0	0	70.7485508567188	70.8485413237941	0.0999904670752585	0.250015299068764
20389.25	100	29	0	29	2	1	0	1	1	0	1	22.5	67.5	-2.7229462594534	-0.130332238404057	0.15	0	0	0	70.9985883424524	71.0985683256295	0.099979983177036	0.15004701865837
20443.5	100	30	0	30	2	1	0	1	1	0	2	67.5	22.5	1.4937519718484	2.64432172027936	0.116666666666667	0	0	0	71.2152614579536	71.3152443668805	0.0999829089269042	0.116693132324144
20543.5	100	31	0	31	2	1	0	1	1	0	2	157.5	112.5	0.705920325967793	1.69395424327879	0.3	0	0	0	71.615273794625	71.7152376864105	0.0999638917855918	0.300029427744448
20597.75	100	32	0	32	2	1	0	1	1	0	2	67.5	112.5	-1.67707379649256	-0.0501272810833959	0.116666666666667	0	0	0	71.8319215539377	71.9318988551386	0.0999773012008518	0.116683867527172
20676.75	100	33	0	33	2	1	0	1	1	0	2	157.5	112.5	1.17115377996129	-1.28661681536644	0.216666666666667	0	0	0	72.1485922068823	72.2486043728422	0.100012165959924	0.216693351743743
20726.75	100	34	0	34	2	1	0	1	1	0	2	157.5	22.5	-0.827951119912209	-1.7820974773572	0.1	0	0	0	72.3486077617854	72.448607981205	0.100000219419599	0.100003388943151
20827	100	35	0	35	2	1	0	1	1	0	2	67.5	22.5	1.41163115591323	-0.808185315410457	0.3	0	0	0	72.7486432604492	72.8486037389375	0.0999604784883559	0.300035279244184
20889.5	100	36	0	36	2	1	0	1	1	0	2	157.5	112.5	-0.559956902236695	2.08659991556115	0.15	0	0	0	72.9986400301568	73.0986214762088	0.0999814460519701	0.150036291219294
20952	100	37	0	37	2	1	0	1	1	0	1	22.5	157.5	2.69262183321428	2.14236581938341	0.15	0	0	0	73.2486511843745	73.3486277542543	0.0999765698798001	0.150029708165675
21018.5	100	38	0	38	2	1	0	1	1	0	2	157.5	22.5	1.46928177708521	0.956362617269951	0.166666666666667	0	0	0	73.5152889352757	73.6152713564225	0.0999824211467057	0.166661181021482
21102	100	39	0	39	2	1	0	1	1	0	2	157.5	112.5	1.2625816403885	1.00975511103959	0.233333333333333	0	0	0	73.8486607903615	73.9486497945618	0.0999890042003244	0.23338943393901
21197.75	100	40	0	40	2	1	0	1	1	0	2	67.5	112.5	-2.13573491457138	-2.92491546464879	0.283333333333333	0	0	0	74.2320065458771	74.3319887234829	0.0999821776058525	0.283356751315296
21272.75	100	41	0	41	2	1	0	1	1	0	2	157.5	22.5	1.7241389676852	1.13467130369094	0.2	0	0	0	74.5319820917211	74.6319674388506	0.0999853471294045	0.199993368238211
21372.75	100	42	0	42	2	1	0	1	1	0	1	22.5	67.5	2.73819034727349	-0.321046713275595	0.3	0	0	0	74.9319932095241	75.0320107394364	0.100017529912293	0.300025770673528
21422.75	100	43	0	43	2	1	0	1	1	0	2	67.5	112.5	2.29872096236108	0.793017594868529	0.1	0	0	0	75.1320299759973	75.2319833838847	0.0999534078873694	0.100019236560911
21481	100	44	0	44	2	1	0	1	1	0	1	112.5	67.5	2.62371983713334	2.39901607732752	0.133333333333333	0	0	0	75.3653396840673	75.4653569702059	0.100017286138609	0.133356300182641
21577	100	45	0	45	2	1	0	1	1	0	2	157.5	112.5	-0.426587369153791	-0.348621730844929	0.283333333333333	0	0	0	75.7486878777854	75.84866542276	0.0999775449745357	0.283330907579511
21652	100	46	0	46	2	1	0	1	1	0	2	157.5	112.5	0.992227792702436	1.66804306721602	0.2	0	0	0	76.0486948750913	76.1486746144947	0.0999797394033521	0.200029452331364
21718.5	100	47	0	47	2	1	0	1	1	3	2	67.5	112.5	0.694718954572041	1.92602829637089	0.166666666666667	0	0	0	76.3153655400965	76.4153455235064	0.0999799834098667	0.16669092560187
21814.5	100	48	0	48	2	1	0	1	1	3	2	67.5	22.5	-2.25742403454595	-3.12392104235078	0.283333333333333	0	0	0	76.6987117831595	76.7986929854378	0.0999812022782862	0.283366259653121
21902	100	49	0	49	2	1	0	1	1	3	1	112.5	67.5	1.18603957389394	-1.93146687067157	0.25	0	0	0	77.0487187684048	77.1487021648791	0.099983396474272	0.250025782966986
21952	100	50	0	50	2	1	0	1	1	2	-1	45	0	-0.817550579853735	-1.28135270154032	0.1	0	0	0	77.2487340795342	77.3487094305456	0.0999753510113806	0.100031914655119
22035.25	100	51	0	51	2	1	0	1	1	3	1	22.5	157.5	-0.0847198484353426	-2.68745291184639	0.233333333333333	0	0	0	77.5820725329686	77.6820569047704	0.0999843718018383	0.233363102423027
22089.5	100	52	0	52	2	1	0	1	1	3	2	157.5	112.5	1.74613124015711	1.44478546296725	0.116666666666667	0	0	0	77.7987449169159	77.898711978225	0.0999670613091439	0.11668801214546
22189.5	100	53	0	53	2	1	0	1	1	3	2	157.5	22.5	3.07565437082674	-1.30357700864605	0.3	0	0	0	78.1987526214216	78.2987347987946	0.0999821773730218	0.300040643196553
22247.75	100	54	0	54	2	1	0	1	1	3	1	22.5	67.5	-1.43907280282178	-2.83740813479003	0.133333333333333	0	0	0	78.4320896361023	78.5320820538327	0.099992417730391	0.133354837307706
22327	100	55	0	55	2	1	0	1	1	0	1	22.5	157.5	0.914398472271033	0.945035969658269	0.216666666666667	0	0	0	78.7487688225228	78.8487453924026	0.0999765698798001	0.216686768690124
22389.5	100	56	0	56	2	1	0	1	1	0	2	67.5	112.5	-1.87876645208862	-0.652924387780172	0.15	0	0	0	78.9988041138276	79.0987711753696	0.0999670615419745	0.150058721425012
22460.25	100	57	0	57	2	1	0	1	1	0	2	67.5	112.5	-2.31379378291788	-0.171016585488294	0.183333333333333	0	0	0	79.2821242937353	79.3821015951689	0.0999773014336824	0.183353118365631
22514.5	100	58	0	58	2	1	0	1	1	0	2	157.5	22.5	-1.51182301655227	2.12540232070571	0.116666666666667	0	0	0	79.498819839675	79.5987973848823	0.0999775452073663	0.116718244506046
22610.25	100	59	0	59	2	1	0	1	1	0	2	67.5	22.5	0.464031688143119	-1.82327550548119	0.283333333333333	0	0	0	79.8821577932686	79.9821424088441	0.0999846155755222	0.283360408386216
22664.5	100	60	0	60	2	1	0	1	1	0	1	22.5	157.5	-2.63664467946272	2.72930911337962	0.116666666666667	0	0	0	80.0988355409354	80.1988004080486	0.0999648671131581	0.116693132091314
22747.75	100	61	0	61	2	1	0	1	1	0	2	67.5	22.5	0.736786236452892	1.21429545931847	0.233333333333333	0	0	0	80.4321739943698	80.5321583661716	0.0999843718018383	0.23337358632125
22797.75	100	62	0	62	2	1	0	1	1	0	1	112.5	157.5	0.203547464530557	-2.87094524775101	0.1	0	0	0	80.6321590731386	80.732144420268	0.0999853471294045	0.100000706966966
22889.5	100	63	0	63	2	1	0	1	1	0	2	157.5	22.5	-0.284320087264391	3.13417928267255	0.266666666666667	0	0	0	80.9988414167892	81.0988448057324	0.100003388943151	0.266696996521205
22972.75	100	64	0	64	2	1	0	1	1	0	1	112.5	157.5	1.95726030186112	2.00085247837152	0.233333333333333	0	0	0	81.3321991311386	81.4321847220417	0.0999855909030885	0.233354325406253
23043.5	100	65	0	65	2	1	0	1	1	0	2	157.5	112.5	1.24300479587217	0.129546931398338	0.183333333333333	0	0	0	81.6155390595086	81.7155292828102	0.0999902233015746	0.183354337466881
23102	100	66	0	66	2	1	0	1	1	0	2	157.5	22.5	2.09971654045856	2.65482037544302	0.133333333333333	0	0	0	81.8488651029766	81.9488606899977	0.0999955870211124	0.133335820166394
23168.5	100	67	0	67	2	1	0	1	1	0	1	112.5	157.5	-2.94327695955566	2.79003873358699	0.166666666666667	0	0	0	82.1155508842785	82.2155289170332	0.0999780327547342	0.166690194280818
23264.5	100	68	0	68	2	1	0	1	1	0	1	112.5	67.5	2.51682047311159	-3.07398098601896	0.283333333333333	0	0	0	82.498873234028	82.5988617504481	0.099988516420126	0.283344316994771
23331	100	69	0	69	2	1	0	1	1	0	2	67.5	22.5	-2.23918039850989	3.02274131768745	0.166666666666667	0	0	0	82.7655799828935	82.8655565527733	0.0999765698798001	0.166718232445419
23402	100	70	0	70	2	1	0	1	1	0	1	22.5	67.5	-1.01438214402616	-0.363294777723218	0.183333333333333	0	0	0	83.0489162541926	83.1489003822207	0.0999841280281544	0.183359701419249
23464.5	100	71	0	71	2	1	0	1	1	0	1	112.5	67.5	-3.10938965094824	1.87053145229233	0.15	0	0	0	83.2989230197854	83.398905441165	0.0999824213795364	0.150022637564689
23556	100	72	0	72	2	1	0	1	1	0	2	67.5	112.5	-1.20116008611798	-0.519123001835065	0.266666666666667	0	0	0	83.6655746435281	83.7655607219785	0.0999860784504563	0.266669202363119
23614.5	100	73	0	73	2	1	0	1	1	0	1	112.5	157.5	2.66359624774654	-2.78437162965169	0.133333333333333	0	0	0	83.8989140964113	83.9988984682132	0.0999843718018383	0.133353374432772
23668.5	100	74	0	74	2	1	0	1	1	0	2	157.5	112.5	-0.298707206529135	2.21898954402689	0.116666666666667	0	0	0	84.1155859928112	84.2155976712238	0.100011678412557	0.116687524598092
23735.25	100	75	0	75	2	1	0	1	1	0	2	67.5	112.5	-0.178679385854791	-0.830949877021568	0.166666666666667	0	0	0	84.3822834771127	84.4822493193205	0.0999658422078937	0.166685805888847
23818.5	100	76	0	76	2	1	0	1	1	0	1	22.5	157.5	0.388246905135443	1.55489971956006	0.233333333333333	0	0	0	84.7156314388849	84.8155841154512	0.0999526765663177	0.23338211956434
23881	100	77	0	77	2	1	0	1	1	0	1	112.5	157.5	-3.10365323390068	-1.36708335714021	0.15	0	0	0	84.965618699789	85.0655940508004	0.0999753510113806	0.150034584337845
23931	100	78	0	78	2	1	0	1	1	0	1	22.5	67.5	1.63049021726265	-0.662449885692186	0.1	0	0	0	85.1656198701821	85.2656013162341	0.0999814460519701	0.100025819381699
24018.5	100	79	0	79	2	1	0	1	1	0	2	157.5	112.5	0.624863394893842	0.241261275577376	0.25	0	0	0	85.5156222230289	85.6156061070506	0.0999838840216398	0.250020906794816
24093.5	100	80	0	80	2	1	0	1	1	0	2	67.5	112.5	0.640102922099105	0.95092928298165	0.2	0	0	0	85.8156323898584	85.9156145672314	0.0999821773730218	0.200026282807812
24181	100	81	0	81	2	1	0	1	1	0	2	67.5	112.5	2.61996027137205	-2.58434190936743	0.25	0	0	0	86.1656259654555	86.2656259411015	0.0999999756459147	0.25001139822416
24264.5	100	82	0	82	2	1	0	1	1	0	1	112.5	67.5	-2.1804397771418	2.66945144753678	0.233333333333333	0	0	0	86.4989985520951	86.5989702458028	0.09997169370763	0.233372610993683
24318.75	100	83	0	83	2	1	0	1	1	0	1	22.5	67.5	1.50757532085446	0.428134468393851	0.116666666666667	0	0	0	86.7156621590257	86.8156443363987	0.0999821773730218	0.116691913222894
24402	100	84	0	84	2	1	0	1	1	0	2	67.5	112.5	2.86862187872394	0.362296055517598	0.233333333333333	0	0	0	87.0490220675711	87.1489888851065	0.09996681753546	0.233377731172368
24452	100	85	0	85	2	1	0	1	1	0	2	157.5	112.5	2.29447006952326	2.88527025211495	0.1	0	0	0	87.2490159235895	87.3489956629928	0.0999797394033521	0.100027038482949
24547.75	100	86	0	86	2	1	0	1	1	0	2	157.5	22.5	-2.71631887879804	-1.8437771163656	0.283333333333333	0	0	0	87.6323714314494	87.7323555592448	0.0999841277953237	0.283375768456608
24618.75	100	87	0	87	2	1	0	1	1	0	1	22.5	157.5	-1.1292589787988	2.47969029141657	0.183333333333333	0	0	0	87.9157147731166	88.0156984133646	0.0999836402479559	0.183359213871881
24697.75	100	88	0	88	2	1	0	1	1	0	2	157.5	22.5	1.22905357077673	2.89838899130414	0.216666666666667	0	0	0	88.2323917651083	88.3323559006676	0.0999641355592757	0.216693351743743
24785.25	100	89	0	89	2	1	0	1	1	0	1	112.5	157.5	1.79619926554138	3.12726374832301	0.25	0	0	0	88.582399237901	88.6823628859129	0.0999636480119079	0.250043337233365
24872.75	100	90	0	90	2	1	0	1	1	0	1	22.5	157.5	-1.23187175449636	-1.03269988956496	0.25	0	0	0	88.93240012764	89.0323835243471	0.0999833967071027	0.250037241727114
24947.75	100	91	0	91	2	1	0	1	1	0	1	22.5	157.5	0.171546687876186	1.90460265715118	0.2	0	0	0	89.2324115135707	89.3323917407542	0.0999802271835506	0.200027989223599
25027	100	92	0	92	2	1	0	1	1	0	1	112.5	67.5	1.79081139827036	3.07635150660206	0.216666666666667	0	0	0	89.549070219975	89.6490504469257	0.09998022695072	0.216678479220718
25114.5	100	93	0	93	2	1	0	1	1	0	2	67.5	22.5	2.32120348046228	0.672948376093026	0.25	0	0	0	89.8990776927676	89.9990588950459	0.0999812022782862	0.25002724584192
25168.75	100	94	0	94	2	1	0	1	1	0	1	112.5	67.5	-1.98527860383162	-2.09535481327986	0.116666666666667	0	0	0	90.115747150965	90.2157376180403	0.0999904670752585	0.116688255919144
25268.75	100	95	0	95	2	1	0	1	1	0	1	22.5	157.5	2.96479959367054	-1.81578769443156	0.3	0	0	0	90.515787525801	90.615748248063	0.0999607222620398	0.300049907760695
25368.75	100	96	0	96	2	1	0	1	1	0	1	112.5	67.5	1.61765684426603	1.98653190189645	0.3	0	0	0	90.9157859655097	91.0157703373116	0.0999843718018383	0.300037717446685
25452	100	97	0	97	2	1	0	1	1	0	1	22.5	67.5	0.232199735743504	2.45994700483885	0.233333333333333	0	0	0	91.2491341712885	91.3491109849419	0.099976813653484	0.23336383397691
25552	100	98	0	98	2	1	0	1	1	3	2	157.5	22.5	-1.52070321487361	-2.38301181320621	0.3	0	0	0	91.6491255403962	91.7491311235353	0.100005583139136	0.300014555454254
25643.75	100	99	0	99	2	1	0	1	1	3	2	67.5	112.5	-1.46540894879752	-0.13184757727499	0.266666666666667	0	0	0	92.0158234878909	92.1157822594978	0.0999587716069072	0.266692364355549
25697.75	100	100	0	100	2	1	0	1	1	3	2	67.5	22.5	-1.94238099850964	0.236909874954595	0.116666666666667	0	0	0	92.2324763669167	92.3324529367965	0.0999765698798001	0.11669410741888
25747.75	100	101	0	101	2	1	0	1	1	1	-1	0	135	1.90615530335527	-1.70253600035481	0.1	0	0	0	92.4324780248571	92.5324770254083	0.0999990005511791	0.100025088060647
25810.25	100	102	0	102	2	1	0	1	1	3	2	157.5	112.5	-1.19150140479731	1.77475242940222	0.15	0	0	0	92.6824991754256	92.782486716751	0.0999875413253903	0.150022150017321
25881.25	100	103	0	103	2	1	0	1	1	3	1	112.5	157.5	-1.55343800945743	-2.9540152836274	0.183333333333333	0	0	0	92.9658476370387	93.0658098221757	0.0999621851369739	0.183360920287669
25956.25	100	104	0	104	2	1	0	1	1	3	1	22.5	157.5	-0.658701720973482	-2.13846319687653	0.2	0	0	0	93.2658361049835	93.3658175510354	0.0999814460519701	0.200026282807812
26052	100	105	0	105	2	1	0	1	1	3	1	112.5	67.5	-1.45234820835397	-2.23184415605229	0.283333333333333	0	0	0	93.6491801536176	93.7491857369896	0.100005583371967	0.283362602582201
26152	100	106	0	106	2	1	0	1	1	0	2	67.5	112.5	-1.68428653860988	0.369776302813609	0.3	0	0	0	94.0492083381396	94.1491817384958	0.099973400356248	0.300022601149976
26214.5	100	107	0	107	2	1	0	1	1	0	2	67.5	22.5	1.16487842357146	2.41699420476383	0.15	0	0	0	94.299196818145	94.3991807021666	0.0999838840216398	0.150015079649165
26310.25	100	108	0	108	2	1	0	1	1	0	1	112.5	157.5	-2.77616815328177	0.786227439135434	0.283333333333333	0	0	0	94.6825394039042	94.7825503509957	0.100010947091505	0.283358701737598
26372.75	100	109	0	109	2	1	0	1	1	0	2	157.5	22.5	-1.25404812245518	-2.20081663346124	0.15	0	0	0	94.9325444630813	95.0325310290791	0.0999865659978241	0.149994112085551
26452	100	110	0	110	2	1	0	1	1	0	1	112.5	157.5	-1.55373880503038	2.05809675593906	0.216666666666667	0	0	0	95.2492255996913	95.3492016820237	0.0999760823324323	0.216694570612162
26502	100	111	0	111	2	1	0	1	1	0	2	67.5	22.5	2.58727610553539	-2.26803681961001	0.1	0	0	0	95.4492277454119	95.5492121172138	0.0999843718018383	0.100026063388214
26593.75	100	112	0	112	2	1	0	1	1	0	1	22.5	67.5	1.31478714053187	2.79940636679595	0.266666666666667	0	0	0	95.8159061879851	95.9158861711621	0.099979983177036	0.266694070771337
26681.25	100	113	0	113	2	1	0	1	1	0	1	22.5	67.5	2.51983632430101	-2.79457074268203	0.25	0	0	0	96.1659126854502	96.2658955943771	0.0999829089269042	0.250026514288038
26756.25	100	114	0	114	2	1	0	1	1	0	1	112.5	67.5	2.50702202893957	2.84183049678837	0.2	0	0	0	96.4659206580836	96.5659069803078	0.0999863222241402	0.200025063706562
26852	100	115	0	115	2	1	0	1	1	0	1	22.5	157.5	0.0242421498870402	2.0404308404466	0.283333333333333	0	0	0	96.8492722648662	96.9492600501981	0.0999877853319049	0.283365284558386
26947.75	100	116	0	116	2	1	0	1	1	0	1	22.5	67.5	-1.45430188127907	2.39319882713198	0.283333333333333	0	0	0	97.2326326488983	97.332591420738	0.0999587718397379	0.283372598700225
27022.75	100	117	0	117	2	1	0	1	1	0	2	67.5	22.5	0.4626470627748	1.04495406024055	0.2	0	0	0	97.532644034829	97.6326059761923	0.09996194136329	0.200052614090964
27081.25	100	118	0	118	2	1	0	1	1	0	2	67.5	22.5	1.73283365595323	0.0195384247047783	0.133333333333333	0	0	0	97.7659832439385	97.8659610329196	0.0999777889810503	0.133377267746255
27164.5	100	119	0	119	2	1	0	1	1	0	2	157.5	22.5	3.07017528525454	-1.91070706616317	0.233333333333333	0	0	0	98.099318040302	98.1992989985738	0.0999809582717717	0.233357007382438
27256.25	100	120	0	120	2	1	0	1	1	0	2	157.5	112.5	1.45321522328625	-2.91208273564004	0.266666666666667	0	0	0	98.4660011152737	98.5659764660522	0.0999753507785499	0.266702116699889
27347.75	100	121	0	121	2	1	0	1	1	0	1	112.5	67.5	1.39361139442719	1.47968306112208	0.266666666666667	0	0	0	98.8326661484316	98.9326471069362	0.0999809585046023	0.266689682379365
27418.75	100	122	0	122	2	1	0	1	1	0	1	112.5	67.5	-0.0928679226211786	-2.70731547172425	0.183333333333333	0	0	0	99.1160060768016	99.2159894732758	0.099983396474272	0.183358969865367
27489.5	100	123	0	123	2	1	0	1	1	0	2	157.5	22.5	1.58184886014059	-2.72278255598893	0.183333333333333	0	0	0	99.3993318642024	99.4993084340822	0.0999765698798001	0.183342390926555
27556.25	100	124	0	124	2	1	0	1	1	3	2	67.5	112.5	1.4257485015758	1.04385073833987	0.166666666666667	0	0	0	99.6660288607236	99.7660173773766	0.0999885166529566	0.166720426641405
27635.25	100	125	0	125	2	1	0	1	1	3	1	22.5	67.5	0.669219596876786	3.02459861204952	0.216666666666667	0	0	0	99.9827004889958	100.082683397923	0.0999829089269042	0.216683111619204
27710.25	100	126	0	126	2	1	0	1	1	3	2	67.5	22.5	-1.95094440581054	-2.26449486842882	0.2	0	0	0	100.282681642566	100.38266211329	0.0999804707244039	0.199998244643211
27764.5	100	127	0	127	2	1	0	1	1	3	2	157.5	22.5	-2.8848156798286	2.10806770507243	0.116666666666667	0	0	0	100.499353051186	100.599334253464	0.0999812022782862	0.116690937895328
29227	100	128	1	0	1	1	90	1	1	3	2	157.5	22.5	2.06002764170033	1.74688200326119	0.2	0	0	0	106.349545453675	106.449497398688	0.0999519450124353	-1
29302	100	129	1	1	1	1	90	1	1	3	1	22.5	67.5	-2.50572723293469	-2.02117946866022	0.2	0	0	0	106.649565616623	106.749512441922	0.099946825299412	0.200068217935041
29377	100	130	1	2	1	1	90	1	1	3	1	112.5	157.5	-0.359913815770986	-2.07474594666469	0.2	0	0	0	106.949537749169	107.04952138965	0.0999836404807866	0.200025307247415
29452	100	131	1	3	1	1	90	1	1	3	2	67.5	112.5	-2.18584507223494	-0.890187481796724	0.2	0	0	0	107.249545234255	107.349553011823	0.100007777567953	0.200023844605312
29527	100	132	1	4	1	1	90	1	1	0	1	112.5	67.5	-0.988894579818927	-2.3685638521904	0.2	0	0	0	107.549555888632	107.649540504208	0.0999846155755222	0.200002876808867
29602	100	133	1	5	1	1	90	1	1	0	2	157.5	112.5	-0.264385718504314	-2.70123069185918	0.2	0	0	0	107.849587023258	107.949547013966	0.0999599907081574	0.200046519050375
29677	100	134	1	6	1	1	90	1	1	0	2	157.5	112.5	-1.36147747023246	2.61785252269786	0.2	0	0	0	108.149574028095	108.249558399897	0.0999843718018383	0.200027014128864
29752	100	135	1	7	1	1	90	1	1	0	1	22.5	67.5	-0.998950872677276	-0.556364388764818	0.2	0	0	0	108.4495798063	108.549556132406	0.0999763261061162	0.200021406402811
29827	100	136	1	8	1	1	90	1	1	0	1	22.5	157.5	-0.259438175196264	-1.57991118553082	0.2	0	0	0	108.749590948457	108.84957117564	0.0999802271835506	0.200034816050902
29902	100	137	1	9	1	1	90	1	1	0	1	112.5	67.5	1.36613003209651	-2.04471628078807	0.2	0	0	0	109.049595264019	109.149575247196	0.099979983177036	0.200024088378996
29977	100	138	1	10	1	1	90	1	1	0	1	22.5	67.5	-1.87471684341555	1.49440091990128	0.2	0	0	0	109.34960323642	109.449584438698	0.0999812022782862	0.200027989223599
30052	100	139	1	11	1	1	90	1	1	0	1	112.5	67.5	-2.08992299533235	-2.94446784799546	0.2	0	0	0	109.649610233959	109.749620205723	0.100009971763939	0.200025795260444
30127	100	140	1	12	1	1	90	1	1	0	1	22.5	157.5	-0.237363916697843	0.0718737589041165	0.2	0	0	0	109.949641612126	110.049621839076	0.09998022695072	0.200021406402811
30202	100	141	1	13	1	1	90	1	1	0	2	157.5	112.5	-1.2948344944367	-0.399456138307552	0.2	0	0	0	110.249659337103	110.349630055483	0.0999707183800638	0.200037498027086
30277	100	142	1	14	1	1	90	1	1	0	1	112.5	157.5	-1.66267105138068	0.242866263797749	0.2	0	0	0	110.549658532487	110.649640466319	0.0999819338321686	0.200028477003798
30352	100	143	1	15	1	1	90	1	1	0	1	112.5	157.5	-2.17290216299956	-0.925687433368316	0.2	0	0	0	110.849668211769	110.949646488298	0.0999782765284181	0.200027745449916
30427	100	144	1	16	1	1	90	1	1	0	2	67.5	22.5	1.99402870336852	2.61236250393398	0.2	0	0	0	111.149673989974	111.249658849556	0.0999848595820367	0.200027501676232
30502	100	145	1	17	1	1	90	1	1	0	1	22.5	157.5	1.91207186484513	-2.80099788539721	0.2	0	0	0	111.449685619678	111.549642928643	0.0999573089648038	0.200026770122349
30577	100	146	1	18	1	1	90	1	1	0	1	22.5	67.5	-2.40909683934681	1.61878269955815	0.2	0	0	0	111.749669455225	111.849676501239	0.100007046014071	0.200026526581496
30652	100	147	1	19	1	1	90	1	1	0	1	112.5	67.5	0.965426017932526	-2.19124018538459	0.2	0	0	0	112.049666700186	112.149644976715	0.0999782765284181	0.199990198947489
30727	100	148	1	20	1	1	90	1	1	0	2	67.5	22.5	-0.367566568026495	-2.80145154637027	0.2	0	0	0	112.349706611829	112.449682450155	0.0999758383259177	0.200061635114253
30802	100	149	1	21	1	1	90	1	1	0	2	67.5	22.5	-2.73542050767445	-2.504702239257	0.2	0	0	0	112.649681670126	112.749660190428	0.099978520302102	0.199999219970778
30877	100	150	1	22	1	1	90	1	1	0	2	157.5	22.5	-2.66734645444503	-1.42699755229007	0.2	0	0	0	112.949698419776	113.049683279125	0.0999848593492061	0.200038229348138
30952	100	151	1	23	1	1	90	1	1	0	2	157.5	112.5	3.1394864081593	-0.112099662844725	0.2	0	0	0	113.24970712373	113.349718558369	0.100011434638873	0.200023844605312
31027	100	152	1	24	1	1	90	1	1	0	2	67.5	112.5	-2.4760875004062	-1.65222551033931	0.2	0	0	0	113.549736795481	113.649704588111	0.0999677926301956	0.20001823711209
31102	100	153	1	25	1	1	90	1	1	0	1	112.5	157.5	0.11014327800301	-2.05648512442645	0.2	0	0	0	113.849752569804	113.949709391221	0.099956821417436	0.200047981692478
31177	100	154	1	26	1	1	90	1	1	0	2	157.5	22.5	1.27196847633276	-2.3100749679322	0.2	0	0	0	114.149738111999	114.249721020926	0.0999829089269042	0.200028720777482
31252	100	155	1	27	1	1	90	1	1	0	2	67.5	22.5	1.57192154381098	1.9454462229876	0.2	0	0	0	114.449739745585	114.549721922958	0.0999821773730218	0.200018724659458
31327	100	156	1	28	1	1	90	1	1	0	1	22.5	67.5	1.30846052296727	2.50678519868628	0.2	0	0	0	114.749750399962	114.849754520459	0.100004120497033	0.200028477003798
31402.25	100	157	1	29	1	1	90	1	1	0	1	112.5	157.5	-2.66308437687163	-1.33453360536549	0.2	0	0	0	115.049781046808	115.149754690938	0.0999736441299319	0.200026526348665
31477	100	158	1	30	1	1	90	1	1	0	2	67.5	112.5	-0.746997317911402	1.64408429902801	0.2	0	0	0	115.34976463858	115.449744133977	0.0999794953968376	0.200009947642684
31552.25	100	159	1	31	1	1	90	1	1	0	1	22.5	67.5	-2.44649123453428	1.05070120375507	0.2	0	0	0	115.64977187966	115.74976088386	0.0999890042003244	0.200027745682746
31627.25	100	160	1	32	1	1	90	1	1	0	2	67.5	22.5	1.38028940273317	2.20635954220289	0.2	0	0	0	115.949801551178	116.049761785893	0.099960234714672	0.200040667317808
31702.25	100	161	1	33	1	1	90	1	1	0	2	67.5	112.5	1.83821263824215	2.61688370794159	0.2	0	0	0	116.24979879614	116.349796333816	0.099997537676245	0.200037010246888
31777.25	100	162	1	34	1	1	90	1	1	0	1	112.5	67.5	-1.68144167054435	0.475012918293439	0.2	0	0	0	116.549818715546	116.649802355794	0.0999836402479559	0.200022381730378
31852.25	100	163	1	35	1	1	90	1	1	0	2	157.5	112.5	0.535231178980906	-1.65217876270113	0.2	0	0	0	116.849808158586	116.949788873084	0.0999807144980878	0.200005802791566
31927.25	100	164	1	36	1	1	90	1	1	0	1	112.5	157.5	-1.58213396768632	-0.613597159080033	0.2	0	0	0	117.149814668112	117.249794651521	0.0999799834098667	0.200025795027614
32002.25	100	165	1	37	1	1	90	1	1	0	1	112.5	157.5	-0.831626300856005	0.10785588040073	0.2	0	0	0	117.449820934096	117.549803843023	0.0999829089269042	0.200026282574981
32077.25	100	166	1	38	1	1	90	1	1	0	1	22.5	67.5	-1.9629907872993	-2.7251107279161	0.2	0	0	0	117.749845973449	117.849828638602	0.0999826651532203	0.200042130425572
32152.25	100	167	1	39	1	1	90	1	1	0	1	112.5	157.5	-1.07974970224025	-1.2828282402381	0.2	0	0	0	118.04985443363	118.14981978829	0.0999653546605259	0.200025795027614
32227.25	100	168	1	40	1	1	90	1	1	0	1	112.5	157.5	-2.19088782235575	-2.48974036023877	0.2	0	0	0	118.349840219365	118.449821909424	0.0999816900584847	0.200020431075245
32302.25	100	169	1	41	1	1	90	1	1	0	2	67.5	22.5	-3.05346200074394	1.39198856090077	0.2	0	0	0	118.649841365404	118.749824518105	0.0999831527005881	0.20001945598051
32377.25	100	170	1	42	1	1	90	1	1	0	2	67.5	112.5	-0.655027924764021	-1.65589051575234	0.2	0	0	0	118.949846656062	119.049831759185	0.09998510312289	0.200022137956694
32452.25	100	171	1	43	1	1	90	1	1	0	2	67.5	112.5	2.05838344383286	-2.16241318441693	0.2	0	0	0	119.249865356134	119.349879716523	0.100014360388741	0.200033596949652
32527.25	100	172	1	44	1	1	90	1	1	3	1	22.5	157.5	0.80880516456817	-1.36597199060535	0.2	0	0	0	119.549895515433	119.649858432123	0.0999629166908562	0.20001579890959
32602.25	100	173	1	45	1	1	90	1	1	3	1	112.5	67.5	1.01504162724007	0.727631538420807	0.2	0	0	0	119.849903975613	119.949865185656	0.0999612100422382	0.200045543489978
32677.25	100	174	1	46	1	1	90	1	1	3	2	67.5	22.5	-0.215978287996208	1.25195508803145	0.2	0	0	0	120.149911216926	120.249878765782	0.0999675488565117	0.200046031270176
32752.25	100	175	1	47	1	1	90	1	1	1	-1	90	45	-2.07458225551468	-0.832543198925593	0.2	0	0	0	120.449897246435	120.54987869272	0.0999814462848008	0.200018480652943
32827.25	100	176	1	48	1	1	90	1	1	3	1	112.5	157.5	-1.53489074085579	-0.756129489218674	0.2	0	0	0	120.749917897163	120.849892029073	0.0999741319101304	0.200039204442874
32902.25	100	177	1	49	1	1	90	1	1	3	2	67.5	112.5	-2.53124277301319	-2.92322784928394	0.2	1	0.492192118894309	1	121.049916117452	121.14990268345	0.0999865659978241	0.200024088378996
32977.25	100	178	1	50	1	1	90	1	1	3	2	157.5	22.5	0.658914552938323	-0.163879755460857	0.2	0	0	0	121.349925796734	121.449905292131	0.0999794953968376	0.20002311328426
33052.25	100	179	1	51	1	1	90	1	1	3	2	157.5	112.5	-2.12778861446827	0.833633227516974	0.2	0	0	0	121.649953030283	121.749913020991	0.0999599907081574	0.200047738151625
33127.25	100	180	1	52	1	1	90	1	1	0	2	157.5	22.5	1.04844511981521	0.326290705808669	0.2	0	0	0	121.949936378049	122.049919043202	0.0999826651532203	0.200023357057944
33202.25	100	181	1	53	1	1	90	1	1	0	2	67.5	22.5	-2.96673465507893	0.841164455078602	0.2	0	0	0	122.249943862902	122.349928234704	0.0999843718018383	0.200024819700047
33277.25	100	182	1	54	1	1	90	1	1	0	1	22.5	67.5	1.43233745108826	0.309364920172951	0.2	0	0	0	122.549953785958	122.649933281587	0.0999794956296682	0.20002555125393
33352.25	100	183	1	55	1	1	90	1	1	0	2	67.5	112.5	-1.58759198377298	2.03520363374509	0.2	0	0	0	122.849961027037	122.949942473322	0.0999814462848008	0.200027745449916
33427.25	100	184	1	56	1	1	90	1	1	0	2	157.5	112.5	-2.12347802434954	2.29188712766726	0.2	0	0	0	123.149993136758	123.24995678477	0.0999636480119079	0.200050663435832
33502.25	100	185	1	57	1	1	90	1	1	0	2	157.5	22.5	-0.266556606456219	-0.00675038964936858	0.2	0	0	0	123.450002572266	123.549989382271	0.0999868100043386	0.200045787496492
33577.25	100	186	1	58	1	1	90	1	1	0	2	157.5	112.5	-1.75194956660099	2.2247499971062	0.2	0	0	0	123.750010301126	123.849991015624	0.0999807144980878	0.200020918855444
33652.25	100	187	1	59	1	1	90	1	1	0	1	22.5	67.5	1.79824507482738	-2.10846811483777	0.2	0	0	0	124.050016566878	124.149981677765	0.099965110886842	0.20002555125393
33727.25	100	188	1	60	1	1	90	1	1	0	2	67.5	22.5	0.978708324107809	-2.00149594207943	0.2	0	0	0	124.350026002387	124.450008179992	0.0999821776058525	0.200044324621558
33802.25	100	189	1	61	1	1	90	1	1	0	1	22.5	157.5	-0.272649499886386	2.4992055724197	0.2	0	0	0	124.6500156892	124.750003230525	0.0999875413253903	0.200007509207353
33877.25	100	190	1	62	1	1	90	1	1	0	1	112.5	67.5	0.213203445228439	-1.09305171698349	0.2	0	0	0	124.950035120826	125.050016566878	0.0999814460519701	0.200031890301034
33952.25	100	191	1	63	1	1	90	1	1	0	1	22.5	67.5	1.67033419078697	-0.780096961060033	0.2	0	0	0	125.250049432507	125.350033804309	0.0999843718018383	0.2000328656286
34027.25	100	192	1	64	1	1	90	1	1	0	2	67.5	112.5	0.959682216129821	-2.39916774675877	0.2	0	0	0	125.550056673586	125.650040314067	0.0999836404807866	0.200022869277745
34102.25	100	193	1	65	1	1	90	1	1	0	1	22.5	157.5	-0.456724782632355	0.481886455829121	0.2	0	0	0	125.850065377541	125.950045848498	0.0999804709572345	0.200025063473731
34177.25	100	194	1	66	1	1	90	1	1	0	1	112.5	67.5	0.349905994476396	1.39167110903054	0.2	0	0	0	126.150049944408	126.250045043882	0.0999950994737446	0.200004095910117
34252.25	100	195	1	67	1	1	90	1	1	0	2	157.5	112.5	-0.391668017866309	-2.65975002649217	0.2	0	0	0	126.450058404589	126.550037412671	0.0999790080823004	0.200013360707089
34327.25	100	196	1	68	1	1	90	1	1	0	2	157.5	22.5	0.837049232698988	-1.31578568765602	0.2	0	0	0	126.750089051435	126.850072204368	0.0999831529334188	0.200051638763398
34402.25	100	197	1	69	1	1	90	1	1	0	1	112.5	157.5	1.9402338586418	-2.82491323677087	0.2	0	0	0	127.050107264193	127.150084565394	0.0999773012008518	0.200035059824586
34477.25	100	198	1	70	1	1	90	1	1	0	1	22.5	67.5	1.69774260901852	-0.470029000121508	0.2	0	0	0	127.35009183106	127.450069376035	0.0999775449745357	0.2000072656665
34552.25	100	199	1	71	1	1	90	1	1	0	1	112.5	67.5	2.84632774712928	-1.69193252787271	0.2	0	0	0	127.650097609265	127.750078567769	0.0999809585046023	0.200028233230114
34627.25	100	200	1	72	1	1	90	1	1	0	2	157.5	22.5	-2.99331032491798	0.552214229442091	0.2	0	0	0	127.950127037009	128.050095561193	0.099968524184078	0.200048469239846
34702.25	100	201	1	73	1	1	90	1	1	0	2	67.5	22.5	-2.70282081846302	1.13247968668314	0.2	0	0	0	128.250133790541	128.350117187249	0.0999833967071027	0.200038229348138
34777.25	100	202	1	74	1	1	90	1	1	0	1	22.5	157.5	-2.42576400127649	-0.473146629917739	0.2	0	0	0	128.550145664252	128.650103460765	0.0999577965121716	0.200028477003798
34852.25	100	203	1	75	1	1	90	1	1	0	2	67.5	112.5	2.82212837675451	-0.0480988205399258	0.2	0	0	0	128.850154368207	128.950131425634	0.0999770574271679	0.200050907442346
34927.25	100	204	1	76	1	1	90	1	1	0	1	22.5	157.5	-0.797531745612836	2.97476818209597	0.2	0	0	0	129.15015941509	129.250157927861	0.0999985127709806	0.20002798945643
35002.25	100	205	1	77	1	1	90	1	1	0	2	157.5	22.5	-0.0363247322074867	1.09325449816721	0.2	0	0	0	129.450172263663	129.550129572628	0.0999573089648038	0.200014335801825
35077.25	100	206	1	78	1	1	90	1	1	0	1	112.5	67.5	-0.317714290302399	-2.50246692539152	0.2	0	0	0	129.750153905014	129.850135594839	0.099981689825654	0.20002433238551
35152.25	100	207	1	79	1	1	90	1	1	0	2	67.5	112.5	-0.208504172989541	1.74272931813941	0.2	0	0	0	130.050155782141	130.150165997911	0.100010215770453	0.200020187301561
35227.25	100	208	1	80	1	1	90	1	1	0	1	22.5	157.5	1.07581822514601	-0.248962006753651	0.2	0	0	0	130.350199594861	130.450155928498	0.0999563336372375	0.200033596949652
35302.25	100	209	1	81	1	1	90	1	1	3	1	22.5	157.5	0.778644200253492	2.42302982585832	0.2	0	0	0	130.650201472221	130.750210712431	0.100009240210056	0.200045543722808
35377.25	100	210	1	82	1	1	90	1	1	3	2	67.5	112.5	-1.83262598628668	-2.23971602994159	0.2	0	0	0	130.950193597004	131.050187965157	0.0999943681526929	0.199982884572819
35452.25	100	211	1	83	1	1	90	1	1	3	2	157.5	22.5	-0.0751800038481383	-0.149404842363337	0.2	0	0	0	131.250217905035	131.350197156658	0.0999792516231537	0.200029939878732
35527.25	100	212	1	84	1	1	90	1	1	2	-1	45	90	2.18993909400623	2.99020495801074	0.2	0	0	0	131.550222464139	131.650183430174	0.0999609660357237	0.200025307480246
35602.25	100	213	1	85	1	1	90	1	1	3	2	157.5	112.5	-0.274712059962219	1.82968348723847	0.2	0	0	0	131.850218246225	131.950213589473	0.0999953432474285	0.200034816050902
35677.25	100	214	1	86	1	1	90	1	1	3	1	22.5	67.5	-0.250507738372137	2.1168634991677	0.2	0	0	0	132.150238165399	132.25020693359	0.0999687681905925	0.200024575926363
35752.25	100	215	1	87	1	1	90	1	1	3	1	112.5	157.5	-1.32265028994244	2.59386049508647	0.2	0	0	0	132.450244431384	132.550207591848	0.0999631604645401	0.200037497794256
35827.25	100	216	1	88	1	1	90	1	1	3	1	112.5	67.5	-0.575253271061505	2.28365632447885	0.2	0	0	0	132.7502307049	132.850217027124	0.0999863222241402	0.200023113051429
35902.25	100	217	1	89	1	1	90	1	1	0	1	22.5	157.5	-0.705407006788303	1.05653974025515	0.2	0	0	0	133.050242334604	133.150231095031	0.0999887604266405	0.200025307480246
35977.25	100	218	1	90	1	1	90	1	1	0	2	157.5	112.5	-1.96301739663609	-2.77881206349783	0.2	0	0	0	133.350274200551	133.450236873236	0.0999626726843417	0.200043105520308
36052.25	100	219	1	91	1	1	90	1	1	0	1	22.5	157.5	0.639425379875969	1.48547415436534	0.2	0	0	0	133.650289243553	133.750240213471	0.0999509699176997	0.20005237031728
36127.25	100	220	1	92	1	1	90	1	1	0	1	112.5	157.5	-2.71296180930556	-0.0348495120285515	0.2	0	0	0	133.950266008498	134.050253793597	0.0999877850990742	0.200025795027614
36202.25	100	221	1	93	1	1	90	1	1	0	2	157.5	22.5	-1.59454109207739	-2.64289699259664	0.2	0	0	0	134.250279344851	134.350284684449	0.100005339598283	0.20002555125393
36277.25	100	222	1	94	1	1	90	1	1	0	1	22.5	157.5	-3.04059688884589	-2.28497670439242	0.2	0	0	0	134.550300970906	134.650253403699	0.0999524327926338	0.200016286456957
36352.25	100	223	1	95	1	1	90	1	1	0	2	67.5	22.5	1.93647647481334	2.70972829401597	0.2	0	0	0	134.850277004298	134.950261132326	0.0999841280281544	0.200023600598797
36427.25	100	224	1	96	1	1	90	1	1	0	2	67.5	112.5	-0.446789199682649	-3.11447575135578	0.2	0	0	0	135.150287658907	135.250272030709	0.0999843718018383	0.200026526581496
36502.25	100	225	1	97	1	1	90	1	1	0	2	67.5	22.5	-0.749479742622164	-1.74065668196507	0.2	0	0	0	135.450295387534	135.550312429899	0.100017042364925	0.200023356825113
36577.25	100	226	1	98	1	1	90	1	1	0	2	157.5	112.5	2.30144771312498	1.92591341481331	0.2	0	0	0	135.750330910785	135.850290413946	0.0999595031607896	0.200018480885774
36652.25	100	227	1	99	1	1	90	1	1	0	1	112.5	157.5	1.58556348972389	2.91893182308466	0.2	0	0	0	136.050343759358	136.150312039768	0.0999682804103941	0.200053345412016
36727.25	100	228	1	100	1	1	90	1	1	0	1	112.5	157.5	-1.58666953766308	-1.66500426573676	0.2	0	0	0	136.350336371921	136.450333178043	0.0999968061223626	0.20002433215268
36802.25	100	229	1	101	1	1	90	1	1	0	2	67.5	22.5	0.830180819882368	2.96254551081947	0.2	0	0	0	136.65034044371	136.750320426887	0.099979983177036	0.2000072656665
36877.25	100	230	1	102	1	1	90	1	1	0	1	112.5	67.5	-1.4177615362138	0.697078973755407	0.2	0	0	0	136.950345734367	137.050329618389	0.0999838840216398	0.200025307480246
36952.25	100	231	1	103	1	1	90	1	1	0	2	157.5	112.5	-0.864256072291784	-0.310261098142201	0.2	0	0	0	137.250354682095	137.350339053897	0.0999843718018383	0.200025063706562
37027.25	100	232	1	104	1	1	90	1	1	0	1	22.5	67.5	-2.51843379181158	-0.0445100970304284	0.2	0	0	0	137.550367043354	137.650343125453	0.0999760820996016	0.20002798945643
37102.25	100	233	1	105	1	1	90	1	1	0	1	22.5	157.5	0.0680247196428585	-0.267296538386436	0.2	0	0	0	137.850400859723	137.950360606657	0.0999597469344735	0.200057734269649
37177.25	100	234	1	106	1	1	90	1	1	0	2	157.5	112.5	0.883120328649755	0.395527875843263	0.2	0	0	0	138.150384451263	138.250384183135	0.0999997318722308	0.200023844605312
37252.25	100	235	1	107	1	1	90	1	1	0	1	112.5	67.5	-1.52842763207884	-2.36280597117654	0.2	0	0	0	138.450390961021	138.550372407073	0.0999814460519701	0.200006777886301
37327.25	100	236	1	108	1	1	90	1	1	0	2	67.5	112.5	-0.880764496866639	2.02442400276656	0.2	0	0	0	138.750393569702	138.85037769773	0.0999841280281544	0.200021162629128
37402.25	100	237	1	109	1	1	90	1	1	0	1	112.5	67.5	-1.5826460256942	-0.632892218300625	0.2	0	0	0	139.050402517663	139.150383232161	0.0999807144980878	0.200024819932878
37477.25	100	238	1	110	1	1	90	1	1	0	2	67.5	112.5	1.15074365374526	-0.857097186727794	0.2	0	0	0	139.350410977844	139.450390961021	0.099979983177036	0.200027745682746
37552.25	100	239	1	111	1	1	90	1	1	0	1	22.5	67.5	2.66562466943115	-1.95777959626644	0.2	0	0	0	139.650417243596	139.750404053601	0.0999868100043386	0.200026282574981
37627.25	100	240	1	112	1	1	90	1	1	0	2	157.5	22.5	2.23568356531448	-1.91951597535264	0.2	0	0	0	139.950429361081	140.050409831805	0.0999804707244039	0.200025307480246
37702.25	100	241	1	113	1	1	90	1	1	0	2	67.5	22.5	1.64541231982382	0.553503655418557	0.2	0	0	0	140.25043367641	140.350417804439	0.0999841280281544	0.200023844605312
37777.25	100	242	1	114	1	1	90	1	1	0	2	157.5	22.5	1.88594682860318	2.6238085830334	0.2	0	0	0	140.550447988091	140.650426752167	0.0999787640757859	0.200030183652416
37852.25	100	243	1	115	1	1	90	1	1	0	2	157.5	112.5	-0.611627864385445	-2.0421096196469	0.2	0	0	0	140.850478634937	140.950454229489	0.0999755945522338	0.200051882769912
37927.25	100	244	1	116	1	1	90	1	1	0	1	112.5	67.5	-1.19572959899747	1.56693573986263	0.2	0	0	0	141.150481487392	141.250446110731	0.0999646233394742	0.200027257902548
38002.25	100	245	1	117	1	1	90	1	1	0	1	22.5	67.5	2.45390080946818	2.30058114281537	0.2	0	0	0	141.45047312486	141.550474319607	0.100001194747165	0.200027014128864
38077.25	100	246	1	118	1	1	90	1	1	0	1	112.5	157.5	3.00239161270979	0.310174705251894	0.2	0	0	0	141.75047792797	141.850484486436	0.100006558466703	0.200003608362749
38152.25	100	247	1	119	1	1	90	1	1	0	2	157.5	22.5	1.36779478679932	2.39376894532192	0.2	0	0	0	142.050485412823	142.15048904554	0.100003632716835	0.200000926386565
38227.25	100	248	1	120	1	1	90	1	1	0	2	157.5	22.5	-1.55611854010822	2.50862373622508	0.2	0	0	0	142.350500699598	142.450486290501	0.0999855909030885	0.200011654058471
38302.25	100	249	1	121	1	1	90	1	1	0	1	22.5	157.5	-2.75002696275117	0.878527158973012	0.2	0	0	0	142.650527201826	142.750491581159	0.0999643793329597	0.200040911324322
38377.25	100	250	1	122	1	1	90	1	1	0	2	67.5	112.5	0.870766922029474	1.73049600635095	0.2	0	0	0	142.950528591406	143.050511500565	0.0999829091597348	0.200037010246888
38452.25	100	251	1	123	1	1	90	1	1	0	2	157.5	22.5	-2.64993603598767	-0.305958680185885	0.2	0	0	0	143.250539977336	143.350523861591	0.0999838842544705	0.200028476770967
38527.25	100	252	1	124	1	1	90	1	1	3	2	157.5	112.5	2.21195091759126	-2.38730942062475	0.2	0	0	0	143.550545755774	143.650511841755	0.0999660859815776	0.20002189418301
38602.25	100	253	1	125	1	1	90	1	1	3	1	112.5	67.5	-2.00802344206034	-0.46793221342756	0.2	0	0	0	143.850556897931	143.950524690561	0.0999677926301956	0.200045056175441
38677.25	100	254	1	126	1	1	90	1	1	3	2	67.5	22.5	-1.38917500682882	-0.242538054453348	0.2	0	0	0	144.150546584744	144.250528762117	0.0999821773730218	0.20002189418301
38752.25	100	255	1	127	1	1	90	1	1	3	1	22.5	157.5	-2.45297592272059	-1.63950482568793	0.2	0	0	0	144.450573574286	144.550554532791	0.0999809585046023	0.200044812168926
40160.75	100	256	2	0	2	1	90	2	2	3	1	22.5	157.5	-2.3936135726814	0.754063190248718	0.15	0	0	0	150.084035322303	150.184037979692	0.100002657389268	-1
40235.75	100	257	2	1	2	1	90	2	2	3	2	67.5	22.5	0.354785084219885	-2.90612541794775	0.2	0	0	0	150.384085717611	150.484026447637	0.0999407300259918	0.200047737918794
40314.75	100	258	2	2	2	1	90	2	2	3	1	112.5	157.5	-1.89357797248277	0.424824278581599	0.216666666666667	0	0	0	150.700736622093	150.800691980636	0.0999553585425019	0.216710174456239
40402.25	100	259	2	3	2	1	90	2	2	3	1	112.5	67.5	-1.53704238614618	-2.51044674607816	0.25	0	0	0	151.050723127322	151.150717739016	0.0999946116935462	0.250031146686524
40456.5	100	260	2	4	2	1	90	2	2	0	2	157.5	22.5	-0.235316877484844	1.31978298445234	0.116666666666667	0	0	0	151.267422574107	151.367405726807	0.0999831527005881	0.116704835090786
40556.5	100	261	2	5	2	1	90	2	2	0	2	67.5	22.5	-2.20142836972985	2.82995161742987	0.3	0	0	0	151.667438568082	151.76741391886	0.0999753507785499	0.300032841274515
40614.75	100	262	2	6	2	1	90	2	2	0	1	112.5	67.5	0.690743853516275	-2.61518916032193	0.133333333333333	0	0	0	151.900766074192	152.000750445994	0.0999843718018383	0.133352155331522
40689.75	100	263	2	7	2	1	90	2	2	0	2	67.5	112.5	1.42745844399321	-2.51440184976793	0.2	0	0	0	152.200770145981	152.300755492877	0.0999853468965739	0.200019699987024
40789.75	100	264	2	8	2	1	90	2	2	0	2	157.5	22.5	-2.7209096034365	1.69016856051099	0.3	0	0	0	152.600775168277	152.700753445039	0.0999782767612487	0.300019675400108
40877.25	100	265	2	9	2	1	90	2	2	0	2	67.5	22.5	-2.99495036982316	2.12745577498687	0.25	0	0	0	152.95079141832	153.050780178746	0.0999887604266405	0.250037973280996
40956.5	100	266	2	10	2	1	90	2	2	0	1	22.5	67.5	2.13265784276075	2.43782288933992	0.216666666666667	0	0	0	153.26749084075	153.367442054441	0.0999512136913836	0.216710662003607
41014.75	100	267	2	11	2	1	90	2	2	0	1	22.5	67.5	0.473396254219549	-2.67269524405367	0.133333333333333	0	0	0	153.50079225935	153.600804181769	0.100011922419071	0.13335020490922
41102.25	100	268	2	12	2	1	90	2	2	0	1	112.5	67.5	-2.68614825480841	-0.559553065731855	0.25	0	0	0	153.850794368424	153.950814336305	0.100019967881963	0.249990186654031
41189.75	100	269	2	13	2	1	90	2	2	0	1	22.5	157.5	2.42330488158398	2.41879951553388	0.25	0	0	0	154.200813300209	154.300777679542	0.0999643793329597	0.249998963903636
41285.75	100	270	2	14	2	1	90	2	2	0	2	67.5	22.5	-2.89914932625405	1.8714256718252	0.283333333333333	0	0	0	154.584148571827	154.684139282675	0.0999907108489424	0.283370892284438
41352.25	100	271	2	15	2	1	90	2	2	0	2	157.5	22.5	-2.25969253191317	0.666126830427685	0.166666666666667	0	0	0	154.850833134027	154.950811654562	0.0999785205349326	0.166693851351738
41402.25	100	272	2	16	2	1	90	2	2	0	2	157.5	22.5	-0.135538896742229	0.867726474904979	0.1	0	0	0	155.050867462531	155.150817700895	0.0999502383638173	0.100055807968602
41481.5	100	273	2	17	2	1	90	2	2	0	1	22.5	157.5	1.71206909572823	-0.239756095889634	0.216666666666667	0	0	0	155.367539090803	155.467514441581	0.0999753507785499	0.216721389908344
41581.5	100	274	2	18	2	1	90	2	2	0	1	112.5	67.5	2.94839411536238	1.12016223283456	0.3	0	0	0	155.767521195114	155.867531654425	0.100010459311306	0.300006753532216
41631.5	100	275	2	19	2	1	90	2	2	0	2	67.5	112.5	1.78658466795771	-1.95653687040352	0.1	0	0	0	155.967532849172	156.067535506794	0.100002657622099	0.100001194747165
41710.75	100	276	2	20	2	1	90	2	2	0	1	112.5	67.5	0.297862595907795	1.44410523842693	0.216666666666667	0	0	0	156.284210084938	156.384184704395	0.0999746194574982	0.216674578143284
41794	100	277	2	21	2	1	90	2	2	0	1	22.5	157.5	-2.8064744765704	0.0258163913006562	0.233333333333333	0	0	0	156.617580233607	156.717527790228	0.0999475566204637	0.23339552921243
41873.25	100	278	2	22	2	1	90	2	2	0	2	157.5	112.5	-2.57973571673331	2.58466463120469	0.216666666666667	0	0	0	156.934217728442	157.034216972534	0.0999992440920323	0.216689938213676
41935.75	100	279	2	23	2	1	90	2	2	0	2	157.5	22.5	2.25455869159415	-0.546145731045267	0.15	0	0	0	157.184225713136	157.284211060265	0.0999853471294045	0.150008740602061
42010.75	100	280	2	24	2	1	90	2	2	0	2	157.5	112.5	-2.97068674851738	0.0283804499658551	0.2	0	0	0	157.48423783062	157.584239512915	0.100001682294533	0.20002677035518
42094	100	281	2	25	2	1	90	2	2	0	1	22.5	67.5	2.30338989614	2.86290775625981	0.233333333333333	0	0	0	157.817601152463	157.917555779452	0.0999546269886196	0.233361639548093
42144	100	282	2	26	2	1	90	2	2	0	1	22.5	157.5	1.87955487605515	1.78418403987349	0.1	0	0	0	158.017583793262	158.117592302151	0.100008508889005	0.100028013810515
42227.5	100	283	2	27	2	1	90	2	2	0	1	112.5	67.5	-2.68785057073559	3.05568982261673	0.233333333333333	0	0	0	158.350945164682	158.450914176414	0.0999690117314458	0.233352862531319
42306.5	100	284	2	28	2	1	90	2	2	3	2	157.5	112.5	2.31887656295608	-2.1471025255933	0.216666666666667	0	0	0	158.667609966127	158.767603602726	0.0999936365988106	0.216695789713413
42398.25	100	285	2	29	2	1	90	2	2	3	1	112.5	67.5	-2.02758677674408	-2.69901263162217	0.266666666666667	0	0	0	159.0343001117	159.134281801526	0.099981689825654	0.266696508973837
42481.5	100	286	2	30	2	1	90	2	2	3	1	112.5	157.5	-1.575983364176	1.95778402984823	0.233333333333333	0	0	0	159.367638808908	159.467625618679	0.099986809771508	0.233357007382438
42577.5	100	287	2	31	2	1	90	2	2	2	-1	135	90	-1.33070330329148	0.445275065770578	0.283333333333333	0	0	0	159.750958476681	159.850946018007	0.0999875413253903	0.283332858001813
42627.5	100	288	2	32	2	1	90	2	2	3	2	67.5	112.5	0.301461528044852	2.67211275323823	0.1	0	0	0	159.950966961216	160.050948407268	0.0999814460519701	0.100020943209529
42715	100	289	2	33	2	1	90	2	2	3	1	22.5	67.5	-1.72447182536943	2.80705619760541	0.25	0	0	0	160.301006129244	160.40098196757	0.0999758383259177	0.250057721976191
42785.75	100	290	2	34	2	1	90	2	2	3	1	22.5	157.5	1.50828022224264	-0.293167633721762	0.183333333333333	0	0	0	160.584341912763	160.684305560775	0.0999636480119079	0.183359945192933
42844	100	291	2	35	2	1	90	2	2	3	2	67.5	22.5	1.08552837471558	-0.0698624379739923	0.133333333333333	0	0	0	160.817659910535	160.917641844368	0.0999819338321686	0.133354349760339
42906.5	100	292	2	36	2	1	90	2	2	0	2	157.5	112.5	-2.67828584000168	-1.01012417601653	0.15	0	0	0	161.067693982972	161.167670796625	0.099976813653484	0.150052138604224
42994	100	293	2	37	2	1	90	2	2	0	2	157.5	22.5	-1.88144133334266	0.630552594897769	0.25	0	0	0	161.417696823366	161.517679244746	0.0999824213795364	0.25002602674067
43060.75	100	294	2	38	2	1	90	2	2	0	2	157.5	112.5	-1.68049203352373	-2.87775673616214	0.166666666666667	0	0	0	161.684374071425	161.784355517477	0.0999814460519701	0.166694826679304
43123.25	100	295	2	39	2	1	90	2	2	0	2	67.5	22.5	-1.77642524208029	2.7011816794571	0.15	0	0	0	161.934353530407	162.034363989718	0.100010459311306	0.149998012930155
43198.25	100	296	2	40	2	1	90	2	2	0	1	22.5	67.5	1.30436317570496	-1.65841871193357	0.2	0	0	0	162.23436979251	162.334368549054	0.0999987565446645	0.200005802791566
43281.5	100	297	2	41	2	1	90	2	2	0	1	112.5	157.5	2.63094103623903	-0.410478675328858	0.233333333333333	0	0	0	162.567731651478	162.667709928006	0.0999782765284181	0.233363102423027
43344	100	298	2	42	2	1	90	2	2	0	1	22.5	157.5	0.800245199308292	1.48976935772928	0.15	0	0	0	162.817740611499	162.917712792754	0.0999721812549978	0.150030683493242
43406.5	100	299	2	43	2	1	90	2	2	0	2	67.5	112.5	-2.66609659570487	-2.76070118809541	0.15	0	0	0	163.067710561911	163.167717851931	0.100007290020585	0.149997769156471
43502.5	100	300	2	44	2	1	90	2	2	0	2	67.5	112.5	-1.14764374026127	-3.09670707239319	0.283333333333333	0	0	0	163.4510507097	163.551078723511	0.100028013810515	0.283332857768983
43602.5	100	301	2	45	2	1	90	2	2	0	1	22.5	157.5	-1.23377894388348	2.36850238515168	0.3	0	0	0	163.851093766512	163.951074725017	0.0999809585046023	0.300015043001622
43673.25	100	302	2	46	2	1	90	2	2	0	2	67.5	112.5	-0.23162937007849	-0.385988572145358	0.183333333333333	0	0	0	164.134406388272	164.234413190512	0.100006802240387	0.183331663254648
43723.25	100	303	2	47	2	1	90	2	2	0	2	67.5	22.5	1.58624576940775	-3.03773579781939	0.1	0	0	0	164.334438034799	164.434420943726	0.0999829089269042	0.100024844286963
43790	100	304	2	48	2	1	90	2	2	0	1	112.5	157.5	0.352846655637584	-2.45758616782034	0.166666666666667	0	0	0	164.601106505608	164.701089658309	0.0999831527005881	0.166685561882332
43885.75	100	305	2	49	2	1	90	2	2	0	1	22.5	157.5	-2.24931171467994	0.377845491649482	0.283333333333333	0	0	0	164.984438120155	165.084440046223	0.100001926068217	0.28334846184589
43981.5	100	306	2	50	2	1	90	2	2	3	2	67.5	112.5	-0.463769715894307	-0.520526452953381	0.283333333333333	0	0	0	165.36779216514	165.467775074067	0.0999829089269042	0.28335211891681
44044	100	307	2	51	2	1	90	2	2	3	1	112.5	67.5	1.37631398765427	2.90770589465647	0.15	0	0	0	165.61780234403	165.717781839659	0.0999794956296682	0.150027269963175
44144	100	308	2	52	2	1	90	2	2	3	1	22.5	67.5	2.19531662806211	1.7692295368213	0.3	0	0	0	166.017809804762	166.117797102313	0.0999872975517064	0.300027965102345
44219	100	309	2	53	2	1	90	2	2	1	-1	90	45	1.4604490956353	1.47678978597926	0.2	0	0	0	166.317830211483	166.417805562494	0.0999753510113806	0.200033109169453
44277.5	100	310	2	54	2	1	90	2	2	3	2	157.5	112.5	2.06371792597318	-0.689139728474745	0.133333333333333	0	0	0	166.551132605411	166.651117220987	0.0999846155755222	0.13332704291679
44344	100	311	2	55	2	1	90	2	2	3	2	67.5	22.5	-2.3487869023861	2.26543839254266	0.166666666666667	0	0	0	166.817807903048	166.917787886225	0.099979983177036	0.166690682061017
44427.5	100	312	2	56	2	1	90	2	2	3	1	112.5	157.5	2.22478819100635	1.81670427937234	0.233333333333333	0	0	0	167.151144893374	167.251140480395	0.0999955870211124	0.233357007149607
44498.25	100	313	2	57	2	1	90	2	2	3	2	157.5	22.5	-0.943561517591143	-1.71514096816324	0.183333333333333	0	0	0	167.434496524744	167.534504058305	0.100007533561438	0.183356044348329
44548.25	100	314	2	58	2	1	90	2	2	0	1	112.5	157.5	-1.1650584439694	1.78316888147072	0.1	0	0	0	167.634528902592	167.734490843955	0.09996194136329	0.100024844286963
44631.5	100	315	2	59	2	1	90	2	2	0	2	67.5	22.5	1.85421101029846	-0.707999365107374	0.233333333333333	0	0	0	167.967852483504	168.067825640086	0.0999731565825641	0.233361639548093
44731.5	100	316	2	60	2	1	90	2	2	0	2	157.5	112.5	0.834035048918576	-1.5006108923716	0.3	0	0	0	168.367885056417	168.467860163655	0.0999751072376966	0.300059416331351
44827.5	100	317	2	61	2	1	90	2	2	0	1	112.5	157.5	1.86689154689419	1.85860364841321	0.283333333333333	0	0	0	168.751190827228	168.851181781851	0.0999909546226263	0.283330663572997
44885.75	100	318	2	62	2	1	90	2	2	0	2	157.5	112.5	-1.23344851516281	-1.66234090752387	0.133333333333333	0	0	0	168.984551979229	169.084539520554	0.0999875413253903	0.133370197378099
44960.75	100	319	2	63	2	1	90	2	2	0	2	157.5	22.5	-0.185894851027469	0.388387964185379	0.2	0	0	0	169.284555807011	169.384537253063	0.0999814460519701	0.200016286456957
45048.25	100	320	2	64	2	1	90	2	2	0	2	67.5	112.5	2.00580505882715	2.60060715445629	0.25	0	0	0	169.634563767351	169.734544482082	0.0999807147309184	0.250026514288038
45106.5	100	321	2	65	2	1	90	2	2	0	1	112.5	157.5	1.34495710515495	-0.376398770526111	0.133333333333333	0	0	0	169.867901026038	169.967882959871	0.0999819338321686	0.133356543956324
45169	100	322	2	66	2	1	90	2	2	0	1	22.5	67.5	-1.09729525719779	2.37975996511829	0.15	0	0	0	170.117908766959	170.217885093065	0.0999763261061162	0.150025807088241
45256.5	100	323	2	67	2	1	90	2	2	0	1	112.5	157.5	-2.17154460530832	1.35854011541135	0.25	0	0	0	170.467920140829	170.567905000178	0.0999848593492061	0.250035047763959
45327.5	100	324	2	68	2	1	90	2	2	0	2	157.5	112.5	-1.63062782347757	2.4793209111218	0.183333333333333	0	0	0	170.751255680574	170.851246635197	0.0999909546226263	0.183350680395961
45427.5	100	325	2	69	2	1	90	2	2	0	2	67.5	112.5	1.03482475961196	0.624891941597423	0.3	0	0	0	171.151294104988	171.25127555104	0.0999814460519701	0.300047469791025
45519	100	326	2	70	2	1	90	2	2	0	2	157.5	112.5	-2.16843248759935	1.38437854704769	0.266666666666667	0	0	0	171.517967427615	171.617949117441	0.099981689825654	0.266691876575351
45594	100	327	2	71	2	1	90	2	2	0	1	22.5	157.5	-2.68324498609409	2.61975315768927	0.2	0	0	0	171.81795296981	171.917933684308	0.0999807144980878	0.200003852369264
45673.25	100	328	2	72	2	1	90	2	2	0	2	67.5	112.5	-3.01251463578066	1.78827084688825	0.216666666666667	0	0	0	172.134660194162	172.234637739137	0.0999775449745357	0.216726509854198
45765	100	329	2	73	2	1	90	2	2	0	1	22.5	67.5	2.04032220548886	0.174823393862777	0.266666666666667	0	0	0	172.501307429047	172.601288875332	0.0999814462848008	0.266669689910486
45831.75	100	330	2	74	2	1	90	2	2	0	1	112.5	67.5	2.31388569415034	2.05905929268492	0.166666666666667	0	0	0	172.767977850512	172.867990260478	0.100012409966439	0.166688975179568
45919.25	100	331	2	75	2	1	90	2	2	0	2	157.5	112.5	-0.770980594390828	1.54340569365594	0.25	0	0	0	173.118013117462	173.217977984576	0.0999648671131581	0.250022856984288
45985.75	100	332	2	76	2	1	90	2	2	0	2	67.5	112.5	-1.68388493634229	-2.28764578527732	0.166666666666667	0	0	0	173.384667203529	173.484646211611	0.0999790080823004	0.166689218953252
46040	100	333	2	77	2	1	90	2	2	0	2	67.5	22.5	-0.677252881911234	1.7140504685519	0.116666666666667	0	0	0	173.601336661959	173.701317376457	0.0999807144980878	0.11669045034796
46135.75	100	334	2	78	2	1	90	2	2	3	2	157.5	22.5	2.53378427845213	-2.9901658372065	0.283333333333333	0	0	0	173.984681929694	174.084666301496	0.0999843718018383	0.283364553237334
46206.75	100	335	2	79	2	1	90	2	2	3	1	22.5	67.5	-0.978025776569235	2.20793155166907	0.183333333333333	0	0	0	174.268026246689	174.368005254772	0.0999790080823004	0.183359945192933
46273.25	100	336	2	80	2	1	90	2	2	3	1	22.5	157.5	1.70124979191922	0.824581880359588	0.166666666666667	0	0	0	174.534696180373	174.634677138878	0.0999809585046023	0.16669092560187
46327.5	100	337	2	81	2	1	90	2	2	2	-1	135	90	0.0898887417061891	-1.17732224833322	0.116666666666667	0	0	0	174.751361493953	174.851351473248	0.09998997929506	0.11668435507454
46410.75	100	338	2	82	2	1	90	2	2	3	2	67.5	112.5	-0.0499350458095664	-2.09934008809505	0.233333333333333	0	0	0	175.084753585281	175.184714795323	0.0999612100422382	0.233402112033218
46498.25	100	339	2	83	2	1	90	2	2	3	2	67.5	22.5	1.20430010088041	-0.329192286320649	0.25	0	0	0	175.43474009051	175.53472616896	0.0999860784504563	0.250025295186788
46573.25	100	340	2	84	2	1	90	2	2	3	2	157.5	112.5	0.35133116607271	0.382795472624943	0.2	0	0	0	175.734749526018	175.834735604469	0.0999860784504563	0.200023357057944
46623.25	100	341	2	85	2	1	90	2	2	3	1	112.5	157.5	2.44309952956158	-0.897068706207578	0.1	0	0	0	175.934739724733	176.034741650801	0.100001926068217	0.100004120264202
46694.25	100	342	2	86	2	1	90	2	2	0	1	112.5	67.5	1.03943176104282	-1.13047236911584	0.183333333333333	0	0	0	176.218099158024	176.318083529826	0.0999843718018383	0.183357507223263
46790	100	343	2	87	2	1	90	2	2	0	1	22.5	67.5	2.09958350902555	-0.579623206472948	0.283333333333333	0	0	0	176.60144150001	176.701403685147	0.0999621851369739	0.283357970183715
46856.75	100	344	2	88	2	1	90	2	2	0	1	22.5	67.5	0.325388599678724	-0.493079227698365	0.166666666666667	0	0	0	176.868111677468	176.968081908301	0.099970230832696	0.16670799232088
46927.5	100	345	2	89	2	1	90	2	2	0	1	112.5	157.5	1.20706468894323	0.690806463275133	0.183333333333333	0	0	0	177.151455994463	177.251432076795	0.0999760823324323	0.183374086162075
47023.25	100	346	2	90	2	1	90	2	2	0	2	157.5	112.5	2.13309145475014	-1.89221402606846	0.283333333333333	0	0	0	177.534790534759	177.634771737037	0.0999812022782862	0.283358457963914
47115	100	347	2	91	2	1	90	2	2	0	1	112.5	157.5	0.314110835661729	2.94868199302075	0.266666666666667	0	0	0	177.901465807809	178.001451154938	0.0999853471294045	0.266694070771337
47194.25	100	348	2	92	2	1	90	2	2	0	2	157.5	22.5	-1.21962117656207	-1.07237728954161	0.216666666666667	0	0	0	178.21812500176	178.318130584899	0.100005583139136	0.216673846822232
47273.25	100	349	2	93	2	1	90	2	2	0	1	112.5	157.5	0.459130602829224	2.24882905048192	0.216666666666667	0	0	0	178.534808089025	178.634782952257	0.0999748632311821	0.216677504125983
47331.75	100	350	2	94	2	1	90	2	2	0	2	67.5	22.5	-0.767246455763527	-0.0138336567264661	0.133333333333333	0	0	0	178.768141934415	178.868126549991	0.0999846155755222	0.133358982158825
47381.75	100	351	2	95	2	1	90	2	2	0	2	157.5	112.5	1.78910956001529	-2.23420211448746	0.1	0	0	0	178.968148712302	179.068156733643	0.100008021341637	0.100022162310779
47469.25	100	352	2	96	2	1	90	2	2	0	1	22.5	67.5	-1.65789508993338	2.21997864982083	0.25	0	0	0	179.318179590628	179.418162499787	0.0999829091597348	0.250022856984288
47565	100	353	2	97	2	1	90	2	2	0	1	112.5	67.5	-1.69401055054849	0.0582231811457783	0.283333333333333	0	0	0	179.701523395721	179.801485580858	0.0999621851369739	0.283360895933583
47619.25	100	354	2	98	2	1	90	2	2	0	2	67.5	112.5	2.89866745217987	-0.92968766777539	0.116666666666667	0	0	0	179.918169692159	180.018151869532	0.0999821773730218	0.116684111300856
47702.5	100	355	2	99	2	1	90	2	2	0	2	157.5	112.5	1.17713420454081	2.38355825228091	0.233333333333333	0	0	0	180.2515434979	180.351522749523	0.0999792516231537	0.233391628367826
47798.25	100	356	2	100	2	1	90	2	2	0	2	157.5	22.5	2.98092028111675	-2.61768725422399	0.283333333333333	0	0	0	180.634882670362	180.734864360187	0.099981689825654	0.283359920838848
47890	100	357	2	101	2	1	90	2	2	0	1	22.5	157.5	1.36171656719338	-2.32948654852131	0.266666666666667	0	0	0	181.001561356941	181.101541340118	0.099979983177036	0.266696996754035
47956.75	100	358	2	102	2	1	90	2	2	0	2	67.5	22.5	-1.15896460279732	2.94215707107784	0.166666666666667	0	0	0	181.268236166798	181.36820932338	0.0999731565825641	0.166694826679304
48040	100	359	2	103	2	1	90	2	2	0	2	67.5	112.5	2.3936253188948	3.04919644656873	0.233333333333333	0	0	0	181.601569500053	181.701551433885	0.0999819338321686	0.233360176673159
48110.75	100	360	2	104	2	1	90	2	2	0	2	67.5	22.5	1.63126829629355	-2.32727108882969	0.183333333333333	0	0	0	181.884883584687	181.984892093576	0.100008508889005	0.183332150802016
48160.75	100	361	2	105	2	1	90	2	2	0	1	112.5	67.5	-0.921363747505166	2.37253693170457	0.1	0	0	0	182.084916937863	182.184874002822	0.0999570649582893	0.100024844286963
48252.5	100	362	2	106	2	1	90	2	2	0	2	157.5	22.5	1.63062348063892	2.67438436696827	0.266666666666667	0	0	0	182.451563685201	182.551542205503	0.099978520302102	0.266689682379365
48327.5	100	363	2	107	2	1	90	2	2	0	1	112.5	67.5	-2.05927805779477	1.10023228417923	0.2	0	0	0	182.751575802686	182.851566025754	0.0999902230687439	0.200033597182482
48381.75	100	364	2	108	2	1	90	2	2	0	2	157.5	112.5	2.17554672419023	2.1224823606171	0.116666666666667	0	0	0	182.968273786595	183.06823109556	0.0999573089648038	0.116707760840654
48456.75	100	365	2	109	2	1	90	2	2	0	2	67.5	22.5	0.149373974403922	1.65425190930049	0.2	0	0	0	183.268255427713	183.368267837679	0.100012409966439	0.20002433215268
48510.75	100	366	2	110	2	1	90	2	2	3	2	67.5	112.5	1.87814673915468	0.177752234993876	0.116666666666667	0	0	0	183.484924154589	183.584910476813	0.0999863222241402	0.116656316909939
48581.75	100	367	2	111	2	1	90	2	2	3	1	112.5	67.5	2.66674613185927	0.955543069225674	0.183333333333333	0	0	0	183.768263839185	183.868251624284	0.0999877850990742	0.183353362372145
48673.25	100	368	2	112	2	1	90	2	2	3	2	67.5	22.5	2.49444171460019	-2.61988838103312	0.266666666666667	0	0	0	184.134948377032	184.234929091763	0.0999807147309184	0.266696752747521
48723.25	100	369	2	113	2	1	90	2	2	1	-1	90	45	-1.04170964462876	2.04626554662416	0.1	0	0	0	184.33495710534	184.43493050593	0.0999734005890787	0.100028013577685
48785.75	100	370	2	114	2	1	90	2	2	3	1	22.5	157.5	-0.476627636715873	-0.372733748067912	0.15	0	0	0	184.584988252027	184.684965065913	0.0999768138863146	0.150057746097445
48860.75	100	371	2	115	2	1	90	2	2	3	1	112.5	157.5	2.74883465259632	0.391235423201286	0.2	0	0	0	184.884967698948	184.984975964064	0.100008265115321	0.200002633035183
48960.75	100	372	2	116	2	1	90	2	2	3	2	157.5	112.5	-2.80128022428262	2.84781202920843	0.3	1	0.842238845070824	1	185.284991494846	185.384973916225	0.0999824213795364	0.30001553078182
49027.5	100	373	2	117	2	1	90	2	2	3	2	157.5	22.5	-1.49817309860056	0.50443261246884	0.166666666666667	0	0	0	185.551681420999	185.651646775659	0.0999653546605259	0.166707504773512
49098.25	100	374	2	118	2	1	90	2	2	0	1	22.5	157.5	0.692772314680233	-2.57899198290758	0.183333333333333	0	0	0	185.835023056017	185.935007427819	0.0999843718018383	0.183376280358061
49152.5	100	375	2	119	2	1	90	2	2	0	1	22.5	157.5	0.484162879214238	1.71177269100516	0.116666666666667	0	0	0	186.051698121941	186.151677373564	0.0999792516231537	0.116690694121644
49210.75	100	376	2	120	2	1	90	2	2	0	2	67.5	112.5	2.79598104406427	-1.07925594433922	0.133333333333333	0	0	0	186.285036111949	186.384998784633	0.0999626726843417	0.133358738385141
49260.75	100	377	2	121	2	1	90	2	2	0	1	22.5	67.5	0.434669751925445	2.34674458881319	0.1	0	0	0	186.485023385147	186.585002149222	0.0999787640757859	0.100024600513279
49352.5	100	378	2	122	2	1	90	2	2	0	1	112.5	67.5	-0.81394462848389	-0.742903213496996	0.266666666666667	0	0	0	186.851717431564	186.95169912139	0.099981689825654	0.266715282341465
49423.5	100	379	2	123	2	1	90	2	2	0	2	157.5	22.5	0.258756669494274	-0.195323935451993	0.183333333333333	0	0	0	187.135040293215	187.235017107101	0.0999768138863146	0.183341171825305
49506.75	100	380	2	124	2	1	90	2	2	0	2	157.5	22.5	1.82655794754924	-0.449380840865875	0.233333333333333	0	0	0	187.468377771322	187.568352878327	0.099975107004866	0.233360664220527
49586	100	381	2	125	2	1	90	2	2	0	2	67.5	22.5	-0.631221664805536	-2.69038129643699	0.216666666666667	0	0	0	187.785059395712	187.885059858905	0.100000463193282	0.216706517385319
49656.75	100	382	2	126	2	1	90	2	2	0	1	22.5	67.5	-2.07232327293973	0.815649832806221	0.183333333333333	0	0	0	188.068403468933	188.168382233009	0.0999787640757859	0.183343610027805
49756.75	100	383	2	127	2	1	90	2	2	0	1	22.5	67.5	1.34272524892112	0.595194772522566	0.3	0	0	0	188.468407759909	188.568396520335	0.0999887604266405	0.300025526899844
49823.5	100	384	2	128	2	1	90	2	2	0	1	22.5	157.5	2.47894491305452	-2.42784070656008	0.166666666666667	0	0	0	188.735083788866	188.835084496066	0.100000707199797	0.16668726853095
49915	100	385	2	129	2	1	90	2	2	0	2	67.5	22.5	1.72496457859025	-0.812645630068703	0.266666666666667	0	0	0	189.101760768797	189.201744896825	0.0999841280281544	0.266676272731274
49969.25	100	386	2	130	2	1	90	2	2	0	1	112.5	67.5	1.23433083583346	-2.29157909505116	0.116666666666667	0	0	0	189.31844412419	189.418432640843	0.0999885166529566	0.116699227364734
50069.25	100	387	2	131	2	1	90	2	2	0	1	112.5	157.5	-1.07982274514394	-2.5882356485588	0.3	0	0	0	189.718454997987	189.818435956491	0.0999809585046023	0.300022357143462
50123.5	100	388	2	132	2	1	90	2	2	0	1	22.5	67.5	0.491906075092358	-1.29906835205927	0.116666666666667	0	0	0	189.935126894386	190.035106877796	0.0999799834098667	0.116690937895328
50186	100	389	2	133	2	1	90	2	2	0	1	112.5	67.5	1.24903855248921	1.45886897956661	0.15	0	0	0	190.185129759135	190.285117544467	0.0999877853319049	0.150022881338373
50244.25	100	390	2	134	2	1	90	2	2	0	1	22.5	157.5	0.91842005050897	-0.480541489741944	0.133333333333333	0	0	0	190.418472138001	190.518484060187	0.100011922186241	0.133354593534023
50302.5	100	391	2	135	2	1	90	2	2	0	2	157.5	22.5	-1.43941441087088	2.10630605284255	0.133333333333333	0	0	0	190.65181085933	190.751795718912	0.0999848595820367	0.133326799143106
50365	100	392	2	136	2	1	90	2	2	0	1	112.5	157.5	2.7603184163937	-0.301473685388967	0.15	0	0	0	190.901818844257	191.00180102163	0.0999821773730218	0.150023125344887
50440	100	393	2	137	2	1	90	2	2	0	1	112.5	157.5	-0.540246825234277	0.30214949963894	0.2	0	0	0	191.201824866235	191.30181167624	0.0999868100043386	0.200023844605312
50531.75	100	394	2	138	2	1	90	2	2	0	2	67.5	112.5	0.191735127947098	-0.428463782581443	0.266666666666667	0	0	0	191.568505503237	191.668485730188	0.09998022695072	0.266693826997653
50586	100	395	2	139	2	1	90	2	2	0	1	112.5	157.5	1.23052510709504	-1.74629860289079	0.116666666666667	0	0	0	191.785174230114	191.885159089463	0.0999848593492061	0.116688499925658
50640	100	396	2	140	2	1	90	2	2	3	2	157.5	22.5	-2.27621159945931	2.66847947464094	0.116666666666667	0	0	0	192.001851490233	192.101833424065	0.0999819338321686	0.116692400770262
50690	100	397	2	141	2	1	90	2	2	3	1	22.5	67.5	1.44355863357896	1.34613860237187	0.1	0	0	0	192.201850953978	192.301834594226	0.0999836402479559	0.100017529912293
50748.5	100	398	2	142	2	1	90	2	2	3	2	67.5	112.5	-0.661002120117985	2.89511197509978	0.133333333333333	0	0	0	192.435192113509	192.535179411061	0.0999872975517064	0.133357519283891
50844.25	100	399	2	143	2	1	90	2	2	3	2	157.5	112.5	2.04700942848259	1.06489859799715	0.283333333333333	0	0	0	192.818541282322	192.918517852202	0.0999765698798001	0.28336187126115
52206.75	100	400	3	0	1	2	90	1	1	3	2	157.5	22.5	2.50035180485082	-0.467526647643173	0.2	0	0	0	198.268665271578	198.36864013481	0.0999748632311821	-1
52281.75	100	401	3	1	1	2	90	1	1	3	1	112.5	67.5	0.481209863191268	2.65755587290263	0.2	0	0	0	198.568724200362	198.66866029799	0.0999360976275057	0.200084065552801
52356.75	100	402	3	2	1	2	90	1	1	3	1	22.5	157.5	-2.84598980923429	-0.076272720989802	0.2	0	0	0	198.868689262541	198.968671440147	0.0999821776058525	0.200028964551166
52431.75	100	403	3	3	1	2	90	1	1	3	2	157.5	112.5	2.07779903236086	-0.0325146678029853	0.2	0	0	0	199.168693334097	199.268676730804	0.0999833967071027	0.200021893950179
52506.75	100	404	3	4	1	2	90	1	1	0	1	22.5	67.5	-3.04235371248134	-0.24297381056528	0.2	0	0	0	199.468724712497	199.568682021461	0.0999573089648038	0.200047981692478
52581.75	100	405	3	5	1	2	90	1	1	0	1	22.5	157.5	2.03560543239853	1.46282247286249	0.2	0	0	0	199.768710498465	199.868690725416	0.09998022695072	0.200028477003798
52656.75	100	406	3	6	1	2	90	1	1	0	1	22.5	157.5	-2.59142800911293	2.98289791684853	0.2	0	0	0	200.068720177514	200.168706499971	0.0999863224569708	0.200029452098534
52731.75	100	407	3	7	1	2	90	1	1	0	1	112.5	67.5	0.691081937304258	-0.643261218448221	0.2	0	0	0	200.368724980624	200.468710815301	0.0999858346767724	0.200018480652943
52806.75	100	408	3	8	1	2	90	1	1	0	1	22.5	67.5	-0.596018536721606	0.191028168306833	0.2	0	0	0	200.668735391228	200.768717812607	0.0999824213795364	0.200024575926363
52881.75	100	409	3	9	1	2	90	1	1	0	1	22.5	157.5	-0.497293507306798	0.10218170217281	0.2	0	0	0	200.968746289611	201.068751141429	0.100004851818085	0.200028477003798
52956.75	100	410	3	10	1	2	90	1	1	0	2	67.5	112.5	0.892097796363617	0.560815387734882	0.2	0	0	0	201.268774498487	201.368757651187	0.0999831527005881	0.200023357057944
53031.75	100	411	3	11	1	2	90	1	1	0	2	67.5	22.5	2.96498123919636	-2.30858995479668	0.2	0	0	0	201.568768817699	201.668744656025	0.0999758383259177	0.200011166511104
53106.75	100	412	3	12	1	2	90	1	1	0	1	112.5	157.5	-2.37603413942772	-1.16894357271844	0.2	0	0	0	201.868758748285	201.968738000141	0.0999792518559843	0.200014092260972
53181.75	100	413	3	13	1	2	90	1	1	0	2	67.5	112.5	2.49323122286599	-1.59821906976843	0.2	0	0	0	202.168762819842	202.268746216549	0.0999833967071027	0.200024819700047
53256.75	100	414	3	14	1	2	90	1	1	0	2	67.5	22.5	-2.29516713558506	-1.55825291021817	0.2	0	0	0	202.468771523796	202.568760284223	0.0999887604266405	0.200025307247415
53331.75	100	415	3	15	1	2	90	1	1	0	2	67.5	112.5	1.32882548861762	-2.84109003543789	0.2	0	0	0	202.768780959304	202.868792393943	0.100011434638873	0.20002067508176
53406.75	100	416	3	16	1	2	90	1	1	0	2	157.5	22.5	-0.573198950644749	-2.49349644905663	0.2	0	0	0	203.068821114721	203.16877330374	0.0999521890189499	0.200028720777482
53481.75	100	417	3	17	1	2	90	1	1	0	2	157.5	112.5	0.402316910659873	2.64218660998715	0.2	0	0	0	203.368826649152	203.468806876335	0.0999802271835506	0.200053345412016
53556.75	100	418	3	18	1	2	90	1	1	0	1	112.5	67.5	2.81371638729895	3.04007691403916	0.2	0	0	0	203.668834134238	203.768813873641	0.0999797394033521	0.200027257902548
53631.75	100	419	3	19	1	2	90	1	1	0	2	157.5	112.5	2.27889278632567	-0.052738287381882	0.2	0	0	0	203.968815775355	204.068828185322	0.100012409966439	0.200001901714131
53706.75	100	420	3	20	1	2	90	1	1	0	1	112.5	67.5	-2.91592547799877	1.93011326030103	0.2	0	0	0	204.26885763742	204.368839571252	0.0999819338321686	0.200029452098534
53781.75	100	421	3	21	1	2	90	1	1	0	1	22.5	157.5	0.946225508895558	-0.418491200491323	0.2	0	0	0	204.5688648785	204.668827551417	0.0999626729171723	0.200025307247415
53856.75	100	422	3	22	1	2	90	1	1	0	2	157.5	112.5	-1.17563084626176	-0.130389125921917	0.2	0	0	0	204.868873582687	204.968833573395	0.0999599907081574	0.200046031270176
53931.75	100	423	3	23	1	2	90	1	1	0	2	67.5	112.5	-2.42322513808609	1.42299229719264	0.2	0	0	0	205.168857905548	205.268842521356	0.0999846158083528	0.20002433215268
54006.75	100	424	3	24	1	2	90	1	1	0	1	22.5	157.5	-0.686720889098341	0.138243205782107	0.2	0	0	0	205.468869291479	205.568875362398	0.100006070919335	0.200026770122349
54081.75	100	425	3	25	1	2	90	1	1	0	2	157.5	22.5	-1.67530965927599	-1.19191432427148	0.2	0	0	0	205.768907740247	205.868860904593	0.0999531643465161	0.200032377848402
54156.75	100	426	3	26	1	2	90	1	1	0	2	67.5	22.5	1.05113557983624	2.89639319380506	0.2	0	0	0	206.068907667184	206.168884724611	0.0999770574271679	0.200046762591228
54231.75	100	427	3	27	1	2	90	1	1	0	2	157.5	22.5	1.20037504575177	-2.80249663754418	0.2	0	0	0	206.368912957842	206.468894403894	0.0999814460519701	0.200028233230114
54306.75	100	428	3	28	1	2	90	1	1	0	1	22.5	67.5	-0.217195414721	2.9757289392119	0.2	0	0	0	206.668904351303	206.768884090707	0.0999797394033521	0.200009947409853
54381.75	100	429	3	29	1	2	90	1	1	0	1	112.5	157.5	2.18182723116991	0.0769354813213829	0.2	0	0	0	206.968906472437	207.068886455847	0.0999799834098667	0.200022381730378
54456.75	100	430	3	30	1	2	90	1	1	0	2	157.5	22.5	1.59584053709888	-2.95714827591012	0.2	0	0	0	207.268940045033	207.368918565568	0.0999785205349326	0.2000535891857
54531.75	100	431	3	31	1	2	90	1	1	0	2	157.5	22.5	-2.87165747136996	-2.63790747585926	0.2	0	0	0	207.568929488072	207.6689136161	0.0999841280281544	0.200010922504589
54606.75	100	432	3	32	1	2	90	1	1	0	2	157.5	22.5	1.02735079921942	1.44321723236942	0.2	0	0	0	207.868956477847	207.968935242156	0.0999787643086165	0.200042861746624
54681.75	100	433	3	33	1	2	90	1	1	0	1	112.5	67.5	-1.91992139776316	-1.35049716929762	0.2	0	0	0	208.168961280957	208.268942239461	0.0999809585046023	0.200026038801298
54756.75	100	434	3	34	1	2	90	1	1	0	2	157.5	112.5	2.86191045258752	-2.42358494728889	0.2	0	0	0	208.468968522036	208.568939240649	0.0999707186128944	0.200026282574981
54831.75	100	435	3	35	1	2	90	1	1	0	1	112.5	157.5	-2.32154295183567	0.981721030587789	0.2	0	0	0	208.768956989981	208.868938436033	0.0999814460519701	0.200017749331892
54906.75	100	436	3	36	1	2	90	1	1	0	1	22.5	157.5	2.33640031075294	-0.507464760188927	0.2	0	0	0	209.068965450162	209.168942751363	0.0999773012008518	0.200027014128864
54981.75	100	437	3	37	1	2	90	1	1	0	1	22.5	67.5	2.62455044586627	1.60648630541161	0.2	0	0	0	209.368970740819	209.468951699324	0.0999809585046023	0.20002798945643
55056.75	100	438	3	38	1	2	90	1	1	0	1	112.5	157.5	-2.35772877374088	-3.03557813935433	0.2	0	0	0	209.669003094314	209.768990879413	0.0999877850990742	0.200051394989714
55131.75	100	439	3	39	1	2	90	1	1	0	2	67.5	112.5	-0.962333472459183	-0.23499008241347	0.2	0	0	0	209.968993024901	210.068991050124	0.0999980252236128	0.200002145487815
55206.75	100	440	3	40	1	2	90	1	1	0	2	157.5	22.5	1.51966029142156	0.493883120933333	0.2	0	0	0	210.269017332699	210.36899512168	0.0999777889810503	0.200026282574981
55281.75	100	441	3	41	1	2	90	1	1	0	1	112.5	157.5	0.997247048354034	1.26201329597575	0.2	0	0	0	210.569001899567	210.668985296274	0.0999833967071027	0.200006777886301
55356.75	100	442	3	42	1	2	90	1	1	0	2	157.5	112.5	-2.06501159958332	0.153513645989493	0.2	0	0	0	210.869010603521	210.968983272556	0.0999726690351963	0.200025307247415
55431.75	100	443	3	43	1	2	90	1	1	0	1	112.5	157.5	2.52124587404527	2.53239110839048	0.2	0	0	0	211.169031010475	211.269017088925	0.0999860784504563	0.200047737918794
55506.75	100	444	3	44	1	2	90	1	1	0	1	22.5	67.5	1.6261944905708	0.0259909927745525	0.2	0	0	0	211.469040445983	211.569027743535	0.0999872975517064	0.200023357057944
55581.75	100	445	3	45	1	2	90	1	1	0	2	67.5	22.5	-2.43071994206057	1.37462901579713	0.2	0	0	0	211.769031595672	211.869006215129	0.0999746194574982	0.200003852136433
55656.75	100	446	3	46	1	2	90	1	1	0	1	22.5	67.5	-1.94822667903028	2.36599372693443	0.2	0	0	0	212.069032010157	212.169018088607	0.0999860784504563	0.200025795027614
55731.75	100	447	3	47	1	2	90	1	1	0	1	112.5	67.5	-1.55165016782117	2.98081135281757	0.2	0	0	0	212.369039007463	212.469023623038	0.0999846155755222	0.200020918855444
55806.75	100	448	3	48	1	2	90	1	1	0	1	112.5	157.5	-3.09784011571053	-1.61389181374161	0.2	0	0	0	212.669049661839	212.769031107891	0.0999814460519701	0.200026038801298
55881.75	100	449	3	49	1	2	90	1	1	0	1	22.5	67.5	1.27937841386612	1.47948411432694	0.2	0	0	0	212.969085916411	213.069095156854	0.100009240442887	0.200054808519781
55956.75	100	450	3	50	1	2	90	1	1	0	2	67.5	22.5	-0.932215407595276	-2.89172321220554	0.2	0	0	0	213.269072677474	213.369053392205	0.0999807147309184	0.19997752062045
56031.75	100	451	3	51	1	2	90	1	1	0	2	157.5	112.5	-0.0772033440810884	-1.15063416524806	0.2	0	0	0	213.569072116865	213.669053075137	0.0999809582717717	0.200018724659458
56106.75	100	452	3	52	1	2	90	1	1	3	2	157.5	112.5	-2.9331113434365	-0.877266785923829	0.2	0	0	0	213.869109834079	213.969094693661	0.0999848595820367	0.200056758942083
56181.75	100	453	3	53	1	2	90	1	1	3	1	22.5	67.5	-0.494647238906259	1.30700902725694	0.2	0	0	0	214.169101471547	214.269101690967	0.100000219419599	0.200006777886301
56256.75	100	454	3	54	1	2	90	1	1	3	2	157.5	22.5	-1.06325884473858	-2.60379193522295	0.2	0	0	0	214.469130655518	214.569112589117	0.0999819335993379	0.200028964551166
56332	100	455	3	55	1	2	90	1	1	2	-1	45	90	-1.71197130696093	2.31522664703262	0.2	0	0	0	214.769144723192	214.869115929352	0.0999712061602622	0.200032134074718
56406.75	100	456	3	56	1	2	90	1	1	3	1	112.5	67.5	2.09253903873089	0.0364210886139995	0.2	0	0	0	215.069140749285	215.169123170432	0.0999824211467057	0.200024819932878
56482	100	457	3	57	1	2	90	1	1	3	2	67.5	22.5	1.22131423826079	-1.86927430525077	0.2	0	0	0	215.369149209466	215.469089207938	0.0999399984721094	0.200026039034128
56557	100	458	3	58	1	2	90	1	1	3	1	22.5	157.5	1.87919303246409	2.71865542045514	0.2	0	0	0	215.669133288553	215.769107420463	0.0999741319101304	0.200044080615044
56632	100	459	3	59	1	2	90	1	1	3	2	67.5	112.5	-2.92860536533432	1.38933655834278	0.2	0	0	0	215.969149063108	216.06915708445	0.100008021341637	0.200041642645374
56707	100	460	3	60	1	2	90	1	1	0	2	157.5	112.5	1.50628451632901	-2.31498302887727	0.2	0	0	0	216.269178247079	216.369126535021	0.0999482879415154	0.200021162629128
56782	100	461	3	61	1	2	90	1	1	0	2	157.5	22.5	2.25247552295179	1.76798326252668	0.2	0	0	0	216.569161107298	216.669138896279	0.0999777889810503	0.200034572277218
56857	100	462	3	62	1	2	90	1	1	0	2	67.5	112.5	-2.92368280763443	0.683352917811153	0.2	0	0	0	216.869158596033	216.969142480288	0.0999838842544705	0.200019699754193
56932	100	463	3	63	1	2	90	1	1	0	2	67.5	22.5	1.21460666456364	-2.19988791050863	0.2	0	0	0	217.16916973819	217.269150208915	0.0999804707244039	0.200027257902548
57007	100	464	3	64	1	2	90	1	1	0	1	112.5	67.5	-0.66772883061515	-2.02461482333614	0.2	0	0	0	217.469177954597	217.569194265408	0.100016310811043	0.200027745682746
57082	100	465	3	65	1	2	90	1	1	0	2	157.5	22.5	0.524778642309371	-2.52145366510051	0.2	0	0	0	217.76922030421	217.869200287387	0.099979983177036	0.200026038801298
57157	100	466	3	66	1	2	90	1	1	0	1	22.5	157.5	-0.26866378299506	0.176882898243818	0.2	0	0	0	218.069207553053	218.169207772473	0.100000219419599	0.2000072656665
57232	100	467	3	67	1	2	90	1	1	0	1	22.5	67.5	2.28913080651745	-1.94579786035666	0.2	0	0	0	218.369228447555	218.469212575583	0.0999841280281544	0.20002067508176
57307	100	468	3	68	1	2	90	1	1	0	1	112.5	157.5	2.86478736256302	-0.0442042746973361	0.2	0	0	0	218.669211307773	218.769191778498	0.0999804707244039	0.199998732190579
57382	100	469	3	69	1	2	90	1	1	0	1	22.5	157.5	-0.987271077406811	-2.48673775329514	0.2	0	0	0	218.96923025162	219.069255583454	0.100025331834331	0.200038473121822
57457	100	470	3	70	1	2	90	1	1	0	1	112.5	157.5	2.68796268446658	-1.26374140889147	0.2	0	0	0	219.269230422331	219.369241125649	0.100010703317821	0.199974838877097
57532	100	471	3	71	1	2	90	1	1	0	1	112.5	67.5	0.872701907618093	0.527395811037839	0.2	0	0	0	219.569265457802	219.66921715904	0.0999517012387514	0.20002433215268
57607	100	472	3	72	1	2	90	1	1	0	2	67.5	112.5	1.30750455721305	3.12944820335867	0.2	0	0	0	219.869241978973	219.969222937478	0.0999809585046023	0.200024819932878
57682	100	473	3	73	1	2	90	1	1	0	2	157.5	22.5	2.36840629087702	-2.13167001292278	0.2	0	0	0	220.1692555591	220.269233835628	0.0999782765284181	0.200032621622086
57757	100	474	3	74	1	2	90	1	1	0	2	67.5	112.5	-0.52198327794016	0.535734781916238	0.2	0	0	0	220.469263531733	220.569242052035	0.099978520302102	0.200029696105048
57832	100	475	3	75	1	2	90	1	1	0	2	157.5	112.5	-2.79183264259574	-2.48478204031708	0.2	0	0	0	220.769300517626	220.869286352303	0.0999858346767724	0.200058465590701
57907	100	476	3	76	1	2	90	1	1	0	2	157.5	22.5	1.49081350094299	-2.99514889640912	0.2	0	0	0	221.069306539604	221.169285060139	0.0999785205349326	0.200020187301561
57982	100	477	3	77	1	2	90	1	1	0	1	112.5	67.5	0.561754466720025	0.161321489711341	0.2	0	0	0	221.369315975113	221.469299615594	0.0999836404807866	0.200030914973468
58057	100	478	3	78	1	2	90	1	1	0	1	112.5	67.5	-2.84335076271203	-1.32550028150076	0.2	0	0	0	221.669301761081	221.769312220393	0.100010459311306	0.200002145487815
58132	100	479	3	79	1	2	90	1	1	0	1	112.5	157.5	0.340483074097546	-2.26886421936752	0.2	0	0	0	221.969314366113	222.069293373963	0.0999790078494698	0.200002145720646
58207	100	480	3	80	1	2	90	1	1	0	2	157.5	112.5	-2.44030211606966	-1.34330952712156	0.2	0	0	0	222.269320388092	222.36930695409	0.0999865659978241	0.200027014128864
58282	100	481	3	81	1	2	90	1	1	0	1	112.5	157.5	2.7603946401435	0.490999839532629	0.2	0	0	0	222.569334699772	222.669308587676	0.0999738879036158	0.200027745682746
58357	100	482	3	82	1	2	90	1	1	0	2	67.5	22.5	0.823464863864356	2.09429058182451	0.2	0	0	0	222.869365102844	222.969337771647	0.0999726688023657	0.200056515168399
58432	100	483	3	83	1	2	90	1	1	0	1	22.5	67.5	-0.624946468445985	-1.78288562883715	0.2	0	0	0	223.169360397151	223.269346475834	0.0999860786832869	0.200022625504062
58507	100	484	3	84	1	2	90	1	1	0	2	67.5	112.5	-2.43679872064847	-0.900778551679913	0.2	0	0	0	223.469366175588	223.56936834543	0.1000021698419	0.200019699754193
58582	100	485	3	85	1	2	90	1	1	0	2	67.5	112.5	1.71080361071037	-0.663864025366683	0.2	0	0	0	223.769381706137	223.869365346618	0.0999836404807866	0.200013360707089
58657	100	486	3	86	1	2	90	1	1	0	1	112.5	67.5	2.8129089293339	1.63523570233927	0.2	0	0	0	224.069388215896	224.169352595462	0.0999643795657903	0.200022869277745
58732	100	487	3	87	1	2	90	1	1	0	2	157.5	22.5	1.4020130539929	0.0293433430800971	0.2	0	0	0	224.369369857013	224.469376171706	0.100006314693019	0.200017261551693
58807	100	488	3	88	1	2	90	1	1	0	1	22.5	67.5	0.170907150441012	2.35726784976022	0.2	0	0	0	224.669403917389	224.769388045184	0.0999841277953237	0.200027745682746
58882	100	489	3	89	1	2	90	1	1	0	1	22.5	157.5	0.970619431445644	-2.55113549517118	0.2	0	0	0	224.96941188979	225.06937724445	0.0999653546605259	0.200023844605312
58957	100	490	3	90	1	2	90	1	1	3	2	157.5	112.5	-0.92379401534562	-1.7190943426685	0.2	0	0	0	225.269401820609	225.369412523694	0.10001070308499	0.200024576159194
59032	100	491	3	91	1	2	90	1	1	3	1	112.5	67.5	0.244523650275735	-0.071836069494283	0.2	0	0	0	225.569434905425	225.669397578342	0.0999626729171723	0.200022381730378
59107	100	492	3	92	1	2	90	1	1	3	2	67.5	22.5	1.84446196772232	-2.12681906237979	0.2	0	0	0	225.869421178941	225.969406769844	0.0999855909030885	0.200023600598797
59182	100	493	3	93	1	2	90	1	1	1	-1	90	45	-2.07801537344204	-3.13324509944174	0.2	0	0	0	226.169446949614	226.269430346321	0.0999833967071027	0.20004017977044
59257	100	494	3	94	1	2	90	1	1	3	1	112.5	157.5	1.21484381297218	1.95012719895723	0.2	0	0	0	226.469431760255	226.569413694087	0.0999819338321686	0.200001413933933
59332	100	495	3	95	1	2	90	1	1	3	1	22.5	157.5	2.60343341318266	2.07232535037829	0.2	1	0.492153840838	1	226.769466308178	226.869446778903	0.0999804707244039	0.200052614090964
59407	100	496	3	96	1	2	90	1	1	3	2	67.5	112.5	-0.0902860000150967	1.38448266744251	0.2	0	0	0	227.069448924623	227.169431589777	0.0999826651532203	0.200002145720646
59482	100	497	3	97	1	2	90	1	1	3	2	157.5	22.5	-2.60484326936101	-2.07637548998647	0.2	0	0	0	227.369459822774	227.469437611755	0.0999777889810503	0.200028232997283
59557	100	498	3	98	1	2	90	1	1	0	2	157.5	112.5	2.35380963027362	-1.93704424570469	0.2	0	0	0	227.669466332532	227.769453873858	0.0999875413253903	0.200028720777482
59632	100	499	3	99	1	2	90	1	1	0	2	67.5	112.5	-1.21568573161453	0.1388161374311	0.2	0	0	0	227.969480644213	228.069473061711	0.0999924174975604	0.20002677035518
59707	100	500	3	100	1	2	90	1	1	0	1	22.5	157.5	1.16118393993715	-0.684599743973254	0.2	0	0	0	228.269477157621	228.369464698946	0.0999875413253903	0.200004095910117
59782	100	501	3	101	1	2	90	1	1	0	2	67.5	22.5	0.337072184484273	1.47857264063461	0.2	0	0	0	228.569476840785	228.669459018158	0.0999821773730218	0.20001214183867
59857	100	502	3	102	1	2	90	1	1	0	2	157.5	112.5	-2.6753026414714	-0.13356927917426	0.2	0	0	0	228.869487007614	228.969469672767	0.0999826651532203	0.20002798945643
59932	100	503	3	103	1	2	90	1	1	0	2	67.5	22.5	-2.1942769511686	-2.65761753728584	0.2	0	0	0	229.169494736474	229.269476913847	0.0999821773730218	0.200025063706562
60007	100	504	3	104	1	2	90	1	1	0	2	157.5	112.5	-2.59953788736953	-2.92535543290579	0.2	0	0	0	229.469503684202	229.56948488648	0.0999812022782862	0.20002677035518
60082	100	505	3	105	1	2	90	1	1	0	2	67.5	22.5	-0.949864020093204	-0.0767096271920193	0.2	0	0	0	229.76954505872	229.869523579022	0.099978520302102	0.200060172239318
60157	100	506	3	106	1	2	90	1	1	0	2	67.5	22.5	2.76794381017002	0.464665582882604	0.2	0	0	0	230.069518654142	230.169499124866	0.0999804707244039	0.199995075119659
60232	100	507	3	107	1	2	90	1	1	0	1	22.5	67.5	-2.22066780786958	2.73564481682172	0.2	0	0	0	230.369558565784	230.469538548961	0.099979983177036	0.200059440918267
60307	100	508	3	108	1	2	90	1	1	0	1	22.5	157.5	-2.97761302102119	-0.369473159685817	0.2	0	0	0	230.669540450675	230.76951555768	0.099975107004866	0.200001901714131
60382	100	509	3	109	1	2	90	1	1	0	1	112.5	67.5	-0.355002249737011	1.66629179489688	0.2	0	0	0	230.969541596482	231.069528162712	0.0999865662306547	0.200026038801298
60457	100	510	3	110	1	2	90	1	1	0	1	112.5	157.5	-0.0553944569682225	2.90760937710588	0.2	0	0	0	231.269551763544	231.369533209596	0.0999814460519701	0.200023600831628
60532	100	511	3	111	1	2	90	1	1	0	1	112.5	67.5	1.07846377610069	-1.43598122062908	0.2	0	0	0	231.569594844477	231.669552397449	0.0999575529713184	0.200061634881422
60607	100	512	3	112	1	2	90	1	1	0	1	22.5	157.5	-3.13960349225107	-0.234012469490324	0.2	0	0	0	231.869577704696	231.96956158895	0.0999838842544705	0.200025307247415
60682	100	513	3	113	1	2	90	1	1	0	1	22.5	67.5	-0.0694113008400223	0.531009003346504	0.2	0	0	0	232.169586652657	232.26957468153	0.0999880288727582	0.200025063706562
60757	100	514	3	114	1	2	90	1	1	0	2	67.5	22.5	-1.74513073519373	-2.51366811596651	0.2	0	0	0	232.469592918409	232.569577290211	0.0999843718018383	0.200018236879259
60832	100	515	3	115	1	2	90	1	1	0	1	112.5	157.5	-1.83944618240323	-2.31784698352436	0.2	0	0	0	232.76960186637	232.869585750392	0.0999838840216398	0.200024576159194
60907	100	516	3	116	1	2	90	1	1	0	2	67.5	112.5	-2.73415009851845	1.65335660144983	0.2	0	0	0	233.069610570325	233.169592503924	0.0999819335993379	0.200024819932878
60982	100	517	3	117	1	2	90	1	1	0	1	22.5	157.5	0.768145056845653	0.19897236408002	0.2	0	0	0	233.369647312444	233.469606571831	0.0999592593871057	0.200054808519781
61057	100	518	3	118	1	2	90	1	1	0	2	157.5	22.5	-0.0746674296664183	0.0874950795375313	0.2	0	0	0	233.669654553523	233.769636487355	0.0999819338321686	0.200047981692478
61132	100	519	3	119	1	2	90	1	1	0	1	112.5	67.5	1.89741196134078	-3.06850773407559	0.2	0	0	0	233.969634731766	234.069616177818	0.0999814460519701	0.199998244410381
61207	100	520	3	120	1	2	90	1	1	0	2	67.5	22.5	-1.70624959424368	2.55260157261466	0.2	0	0	0	234.269647336798	234.369621956255	0.0999746194574982	0.200031158979982
61282	100	521	3	121	1	2	90	1	1	0	2	157.5	112.5	0.24867135812861	-0.135531886710466	0.2	0	0	0	234.569654577877	234.669631391764	0.0999768138863146	0.200032621622086
61357	100	522	3	122	1	2	90	1	1	0	2	67.5	112.5	3.03502451655017	-2.31743101017109	0.2	0	0	0	234.869656942785	234.969663501484	0.100006558699533	0.200025551021099
61432	100	523	3	123	1	2	90	1	1	0	1	22.5	67.5	1.26451028420671	1.22128911529044	0.2	0	0	0	235.169674180215	235.269657332916	0.0999831527005881	0.200010678730905
61507	100	524	3	124	1	2	90	1	1	3	1	112.5	157.5	2.39992909209566	2.63714113311259	0.2	0	0	0	235.469681421295	235.569681640714	0.100000219419599	0.200024088378996
61582	100	525	3	125	1	2	90	1	1	3	2	67.5	112.5	-1.0827099598504	-2.0066442197625	0.2	0	0	0	235.769692807226	235.869667182909	0.0999743756838143	0.200011166511104
61657	100	526	3	126	1	2	90	1	1	3	2	67.5	22.5	-0.995965296493566	3.10584108822529	0.2	0	0	0	236.069699316984	236.16968149459	0.0999821776058525	0.200032134074718
61732	100	527	3	127	1	2	90	1	1	3	1	22.5	67.5	2.95088452492142	-0.764935616811622	0.2	0	0	0	236.369720942806	236.469692880521	0.0999719377141446	0.200039448216558
64928	100	528	4	0	2	2	90	2	2	3	2	67.5	112.5	-0.539851594511287	3.12924061010604	0.2	0	0	0	249.153379408643	249.253356953617	0.0999775449745357	-1
64994.5	100	529	4	1	2	2	90	2	2	3	2	67.5	22.5	2.7468940188654	-1.98740152352135	0.166666666666667	0	0	0	249.420088595711	249.520057607442	0.0999690117314458	0.166731642093509
65065.5	100	530	4	2	2	2	90	2	2	3	1	22.5	67.5	-0.80068534247059	-0.188044858684474	0.183333333333333	0	0	0	249.70341608976	249.803401436657	0.0999853468965739	0.183358482317999
65165.5	100	531	4	3	2	2	90	2	2	3	1	22.5	157.5	0.519277752317853	0.627235159456146	0.3	0	0	0	250.103407702642	250.203405484091	0.0999977814499289	0.300006265984848
65236.25	100	532	4	4	2	2	90	2	2	0	2	67.5	22.5	1.98721877562362	-2.26638244431578	0.183333333333333	0	0	0	250.386767867254	250.486750532407	0.0999826651532203	0.183362383162603
65319.5	100	533	4	5	2	2	90	2	2	0	1	112.5	157.5	-0.0917449611081582	0.0237117902204722	0.233333333333333	0	0	0	250.720089497743	250.820100201061	0.100010703317821	0.233338965335861
65369.5	100	534	4	6	2	2	90	2	2	0	1	112.5	157.5	2.63270652053735	0.160157212288834	0.1	0	0	0	250.920094568981	251.020078209229	0.0999836402479559	0.0999943679198623
65448.75	100	535	4	7	2	2	90	2	2	0	2	67.5	112.5	-0.591242682569637	1.36191896586797	0.216666666666667	0	0	0	251.236785458168	251.336754957447	0.0999694992788136	0.216707248939201
65540.5	100	536	4	8	2	2	90	2	2	0	2	157.5	22.5	-0.647971238103524	-1.7781552211486	0.266666666666667	0	0	0	251.60344780935	251.703427548753	0.0999797394033521	0.266692851902917
65628	100	537	4	9	2	2	90	2	2	0	1	22.5	157.5	-2.62432887175086	2.53455707831102	0.25	0	0	0	251.953479663003	252.053460377734	0.0999807147309184	0.250052114250138
65698.75	100	538	4	10	2	2	90	2	2	0	1	22.5	157.5	-1.26506083710632	-0.354584373352629	0.183333333333333	0	0	0	252.23679569806	252.336804938503	0.100009240442887	0.183335320325568
65790.5	100	539	4	11	2	2	90	2	2	0	1	22.5	67.5	-3.04208886257801	-0.971915657725323	0.266666666666667	0	0	0	252.603495352203	252.703477529809	0.0999821776058525	0.266690413700417
65873.75	100	540	4	12	2	2	90	2	2	0	1	112.5	67.5	-2.90107701230587	2.81170878648721	0.233333333333333	0	0	0	252.936837218935	253.036821346963	0.0999841280281544	0.233359689125791
65948.75	100	541	4	13	2	2	90	2	2	0	1	112.5	67.5	-0.638987192538195	-2.41942490068625	0.2	0	0	0	253.236823004903	253.336807620479	0.0999846155755222	0.200001657940447
66011.25	100	542	4	14	2	2	90	2	2	0	2	67.5	112.5	-0.156315214443526	-2.57222849899937	0.15	0	0	0	253.486865610583	253.586812191876	0.0999465812928975	0.15005799010396
66078	100	543	4	15	2	2	90	2	2	0	1	112.5	157.5	-3.03085740036295	2.31234935544582	0.166666666666667	0	0	0	253.753498241305	253.853486270411	0.0999880291055888	0.1666860494297
66136.25	100	544	4	16	2	2	90	2	2	0	1	22.5	67.5	-2.8997007697669	-0.817458910617879	0.133333333333333	0	0	0	253.986844277242	254.086826698622	0.0999824213795364	0.133358006831259
66190.5	100	545	4	17	2	2	90	2	2	0	1	22.5	67.5	-0.13340999690757	-1.61057011612702	0.116666666666667	0	0	0	254.203515685862	254.303498107241	0.0999824213795364	0.116688987240195
66265.5	100	546	4	18	2	2	90	2	2	0	2	67.5	112.5	2.36185326284803	-0.518732814329483	0.2	0	0	0	254.503523414722	254.603508274071	0.0999848593492061	0.200025307480246
66319.5	100	547	4	19	2	2	90	2	2	0	2	157.5	22.5	-0.248103731783164	0.742931990738768	0.116666666666667	0	0	0	254.720194823574	254.820180414245	0.0999855906702578	0.116686549503356
66378	100	548	4	20	2	2	90	2	2	3	1	112.5	157.5	-1.86938653305153	-0.858331739535009	0.133333333333333	0	0	0	254.953536714427	255.053522061557	0.0999853471294045	0.133356300182641
66461.25	100	549	4	21	2	2	90	2	2	3	2	67.5	112.5	-0.194676782285739	-0.749764086294339	0.233333333333333	0	0	0	255.286872485885	255.386862709187	0.0999902233015746	0.233350424328819
66523.75	100	550	4	22	2	2	90	2	2	3	1	22.5	157.5	-1.55575318899063	1.08961326363296	0.15	0	0	0	255.536880714586	255.636891661678	0.100010947091505	0.150018005399033
66594.5	100	551	4	23	2	2	90	2	2	1	-1	90	45	1.6129980762429	-2.2915945283876	0.183333333333333	0	0	0	255.820241854293	255.920231590047	0.0999897357542068	0.183350192615762
66661.25	100	552	4	24	2	2	90	2	2	3	1	22.5	67.5	1.83238406928892	0.774839446614772	0.166666666666667	0	0	0	256.086923490977	256.186888601864	0.099965110886842	0.166691900929436
66740.5	100	553	4	25	2	2	90	2	2	3	2	157.5	112.5	2.13680986033421	-3.06641250201186	0.216666666666667	0	0	0	256.403583172476	256.503580709919	0.0999975374434143	0.216694570612162
66828	100	554	4	26	2	2	90	2	2	3	2	157.5	22.5	1.783754570884	0.0558011051702576	0.25	0	0	0	256.753613075707	256.853589401813	0.0999763261061162	0.250032365787774
66878	100	555	4	27	2	2	90	2	2	3	1	112.5	67.5	-2.65429590950115	1.8761233842069	0.1	0	0	0	256.953611807898	257.0535961797	0.0999843718018383	0.100022406084463
66940.5	100	556	4	28	2	2	90	2	2	0	1	112.5	157.5	2.18549197398338	-0.0668548142855965	0.15	0	0	0	257.2036037012	257.303583684377	0.099979983177036	0.150007521500811
67023.75	100	557	4	29	2	2	90	2	2	0	1	22.5	157.5	-2.18201149162131	-1.06120320554894	0.233333333333333	0	0	0	257.536964585073	257.636945787352	0.0999812022782862	0.23338090069592
67111.25	100	558	4	30	2	2	90	2	2	0	2	67.5	22.5	2.59609039669466	1.28441101094439	0.25	0	0	0	257.886949627427	257.986919126706	0.0999694992788136	0.250003840075806
67173.75	100	559	4	31	2	2	90	2	2	0	2	67.5	22.5	-2.85446454639315	-0.510729340383412	0.15	0	0	0	258.136944690254	258.2369271114	0.0999824211467057	0.150025563547388
67248.75	100	560	4	32	2	2	90	2	2	0	2	157.5	22.5	1.94170875965428	2.76470912307099	0.2	0	0	0	258.436955588404	258.53697092412	0.100015335716307	0.200028477003798
67344.75	100	561	4	33	2	2	90	2	2	0	1	22.5	157.5	2.76032804821437	0.604537157084141	0.283333333333333	0	0	0	258.820330844959	258.920306439511	0.0999755945522338	0.283359920838848
67411.25	100	562	4	34	2	2	90	2	2	0	1	22.5	67.5	-1.10359833860216	0.60923808174238	0.166666666666667	0	0	0	259.087002485292	259.186980518047	0.0999780327547342	0.166696045780554
67490.5	100	563	4	35	2	2	90	2	2	0	2	157.5	112.5	2.84993289121758	-1.16217553266678	0.216666666666667	0	0	0	259.403672894463	259.503632641397	0.0999597469344735	0.216692376416177
67540.5	100	564	4	36	2	2	90	2	2	0	2	67.5	22.5	2.32784396225879	2.57798794906871	0.1	0	0	0	259.603653584607	259.703636737308	0.0999831527005881	0.100020943209529
67598.75	100	565	4	37	2	2	90	2	2	0	2	157.5	22.5	1.48991251511409	-2.04044500840907	0.133333333333333	0	0	0	259.836991330842	259.936972777126	0.0999814462848008	0.133354593534023
67690.5	100	566	4	38	2	2	90	2	2	0	1	22.5	157.5	-2.27847600677223	1.75057762635653	0.266666666666667	0	0	0	260.203665628796	260.303661703598	0.0999960748013109	0.266692851670086
67786.25	100	567	4	39	2	2	90	2	2	0	2	67.5	112.5	-2.99005634520281	0.0766119754313195	0.283333333333333	0	0	0	260.587040641345	260.687024281826	0.0999836404807866	0.283378937747329
67848.75	100	568	4	40	2	2	90	2	2	0	1	22.5	67.5	-0.542637756059671	0.860419040907624	0.15	0	0	0	260.83705277089	260.937030072324	0.0999773014336824	0.150028489064425
67932.25	100	569	4	41	2	2	90	2	2	0	2	67.5	22.5	2.98371503156396	-2.45278869546796	0.233333333333333	0	0	0	261.17038976145	261.270371207502	0.0999814460519701	0.233359689125791
67990.5	100	570	4	42	2	2	90	2	2	0	2	67.5	22.5	-3.12232049625474	1.05746895285901	0.133333333333333	0	0	0	261.403727507684	261.503711391939	0.0999838842544705	0.133356300182641
68057.25	100	571	4	43	2	2	90	2	2	0	1	112.5	67.5	-0.344545452971901	-2.3029896154943	0.166666666666667	0	0	0	261.670404999517	261.770362064708	0.0999570651911199	0.166693607578054
68119.75	100	572	4	44	2	2	90	2	2	0	2	157.5	112.5	0.0429795686496921	-0.183183612154958	0.15	0	0	0	261.920377875678	262.020362979034	0.0999851033557206	0.150015810970217
68215.5	100	573	4	45	2	2	90	2	2	0	2	157.5	112.5	-1.58783558102854	-3.12435249464994	0.283333333333333	0	0	0	262.303724850295	262.403706540121	0.099981689825654	0.28336187126115
68282.25	100	574	4	46	2	2	90	2	2	0	2	157.5	112.5	0.131200673842172	0.577696292604529	0.166666666666667	0	0	0	262.570400391473	262.670377449133	0.0999770576599985	0.166693851351738
68332.25	100	575	4	47	2	2	90	2	2	0	1	22.5	67.5	-1.85560834066841	-0.312571078782268	0.1	0	0	0	262.770400098991	262.870389346965	0.0999892479740083	0.100022649858147
68419.75	100	576	4	48	2	2	90	2	2	0	2	157.5	112.5	1.10605529929203	-0.984699743924617	0.25	0	0	0	263.120444386965	263.220408766298	0.0999643793329597	0.250055040000007
68486.25	100	577	4	49	2	2	90	2	2	0	2	67.5	112.5	-0.584914174351356	-1.94764792607106	0.166666666666667	0	0	0	263.387115295976	263.487099911552	0.0999846155755222	0.166706529678777
68586.25	100	578	4	50	2	2	90	2	2	0	2	157.5	22.5	-0.53965842358521	2.57936104495954	0.3	0	0	0	263.787134703249	263.887112736003	0.0999780327547342	0.300034791696817
68644.75	100	579	4	51	2	2	90	2	2	0	1	22.5	157.5	-1.45812660748927	0.641479589600761	0.133333333333333	0	0	0	264.020471718162	264.120456577512	0.0999848593492061	0.133358982158825
68740.5	100	580	4	52	2	2	90	2	2	0	1	112.5	67.5	2.31640726700291	-1.28026196191806	0.283333333333333	0	0	0	264.403817717219	264.503811841598	0.099994124379009	0.283361139707267
68832.25	100	581	4	53	2	2	90	2	2	3	1	112.5	67.5	-0.76569436524588	2.23163774014927	0.266666666666667	0	0	0	264.7704917714	264.870457613608	0.0999658422078937	0.266679929802194
68890.5	100	582	4	54	2	2	90	2	2	3	2	67.5	22.5	-0.783368659611734	0.556443515954919	0.133333333333333	0	0	0	265.003832930932	265.103792434325	0.0999595033936203	0.133375317323953
68953	100	583	4	55	2	2	90	2	2	3	1	112.5	157.5	-1.87158070470284	-0.445348544292367	0.15	0	0	0	265.253818972968	265.353798956145	0.099979983177036	0.150026538642123
69036.25	100	584	4	56	2	2	90	2	2	2	-1	135	90	-2.91214149897271	-0.387112235460736	0.233333333333333	0	0	0	265.587157913949	265.687141797971	0.0999838840216398	0.233358957804739
69111.25	100	585	4	57	2	2	90	2	2	3	2	157.5	112.5	-0.131446625715774	-0.167896070060299	0.2	0	0	0	265.88716637413	265.987164643127	0.0999982689972967	0.200024576159194
69178	100	586	4	58	2	2	90	2	2	3	2	67.5	112.5	1.93987559833807	2.9479480982482	0.166666666666667	0	0	0	266.153841183987	266.253827506211	0.0999863222241402	0.166676540859044
69248.75	100	587	4	59	2	2	90	2	2	3	2	157.5	22.5	0.505654942705336	0.19898789430437	0.183333333333333	0	0	0	266.437182331458	266.537165240385	0.0999829089269042	0.183354825247079
69348.75	100	588	4	60	2	2	90	2	2	3	1	22.5	67.5	-2.72773885659367	-1.4558383685478	0.3	0	0	0	266.837201494724	266.937197569525	0.0999960748013109	0.30003625433892
69423.75	100	589	4	61	2	2	90	2	2	0	2	157.5	112.5	2.86866037167205	2.76216430244367	0.2	0	0	0	267.137206297833	267.237185793463	0.0999794956296682	0.200008728308603
69482.25	100	590	4	62	2	2	90	2	2	0	1	112.5	157.5	-0.820736776983376	-2.69071606969161	0.133333333333333	0	0	0	267.370540143223	267.470503791235	0.0999636480119079	0.133354349760339
69573.75	100	591	4	63	2	2	90	2	2	0	1	112.5	67.5	1.62063204042819	1.21114798664128	0.266666666666667	0	0	0	267.737237846944	267.83720710245	0.0999692555051297	0.266734055709094
69623.75	100	592	4	64	2	2	90	2	2	0	2	157.5	112.5	1.88371583390997	-0.0148152694087109	0.1	0	0	0	267.937228289433	268.037226802204	0.0999985127709806	0.100021186983213
69686.25	100	593	4	65	2	2	90	2	2	0	2	157.5	22.5	-1.37797767665176	2.6279649995713	0.15	0	0	0	268.187256266596	268.287236005999	0.0999797394033521	0.150029464391991
69786.25	100	594	4	66	2	2	90	2	2	0	1	22.5	67.5	1.28276309051205	-1.44296766814608	0.3	0	0	0	268.587263483321	268.687246148475	0.0999826651532203	0.300027477322146
