onset	duration	total_event_number	stream_number	event_num_per_stream	timing_predictability	target_col	target_ori	n_targets	n_distractors	is_target	ori_pair_num	att_ori	unatt_ori	gabor_phase_att	gabor_phase_unatt	blank_dur	response	rt	correct	time_stimon	time_stimoff	stim_dur	ISI_dur
6061.25	100	0	0	0	2	1	0	2	2	3	1	22.5	67.5	0.704523271001118	0.640210415929373	0.216666666666667	0	0	0	64.2884784598136	64.3884377192007	0.0999592593871057	-1
6115.25	100	1	0	1	2	1	0	2	2	3	1	112.5	157.5	-0.613711928032817	-2.34802747995975	0.116666666666667	0	0	0	64.5053254115628	64.6051088841632	0.099783472600393	0.11688769236207
6207	100	2	0	2	2	1	0	2	2	3	1	22.5	157.5	-1.37380768885476	-1.84260345642058	0.266666666666667	0	0	0	64.8718088065507	64.9717778182821	0.0999690117314458	0.266699922387488
6282	100	3	0	3	2	1	0	2	2	3	1	112.5	67.5	-2.15535062153397	0.285840706245128	0.2	0	0	0	65.1718143409817	65.2717948118225	0.0999804708408192	0.20003652269952
6373.75	100	4	0	4	2	1	0	2	2	0	1	112.5	67.5	2.24646961066413	1.3988164278971	0.266666666666667	0	0	0	65.5384918084601	65.6384769116994	0.0999851032393053	0.26669699663762
6465.25	100	5	0	5	2	1	0	2	2	0	2	67.5	112.5	1.95494438253713	1.75767993642014	0.266666666666667	0	0	0	65.9051487958059	66.0051473085769	0.0999985127709806	0.266671884106472
6561.25	100	6	0	6	2	1	0	2	2	0	2	67.5	22.5	0.397980322825795	2.01708998125469	0.283333333333333	0	0	0	66.2885152751114	66.3884955021786	0.0999802270671353	0.28336796653457
6661.25	100	7	0	7	2	1	0	2	2	0	2	67.5	22.5	-2.29246325572564	0.776146660282012	0.3	0	0	0	66.6885176156648	66.7884824826615	0.0999648669967428	0.300022113486193
6757	100	8	0	8	2	1	0	2	2	0	1	112.5	157.5	-0.444595587344264	1.08195398370002	0.283333333333333	0	0	0	67.0718350891257	67.1718470114283	0.100011922302656	0.283352606464177
6852.75	100	9	0	9	2	1	0	2	2	0	2	157.5	112.5	-1.46690102356629	0.332704218644241	0.283333333333333	0	0	0	67.4552057131659	67.5551861840067	0.0999804708408192	0.283358701737598
6919.5	100	10	0	10	2	1	0	2	2	0	1	22.5	67.5	-2.53586152943743	2.78643316144421	0.166666666666667	0	0	0	67.7218793040374	67.8218653824879	0.0999860784504563	0.166693120030686
7007	100	11	0	11	2	1	0	2	2	0	2	67.5	22.5	-0.758796979165752	3.05950495847445	0.25	0	0	0	68.0718879958149	68.1718755371403	0.0999875413253903	0.250022613327019
7077.75	100	12	0	12	2	1	0	2	2	0	1	112.5	67.5	0.29924625242366	-1.85081180613245	0.183333333333333	0	0	0	68.3552345071221	68.4552230236586	0.0999885165365413	0.183358969981782
7177.75	100	13	0	13	2	1	0	2	2	0	1	112.5	157.5	2.60403246893362	-1.26338282094176	0.3	0	0	0	68.7552266076673	68.8552258518757	0.0999992442084476	0.300003584008664
7232	100	14	0	14	2	1	0	2	2	0	2	67.5	22.5	2.12178612607912	0.23557115436695	0.116666666666667	0	0	0	68.9719145954587	69.0722905255388	0.10037593008019	0.116688743582927
7311.25	100	15	0	15	2	1	0	2	2	0	2	157.5	22.5	0.215702026963879	-2.83648871937004	0.216666666666667	0	0	0	69.2885864675045	69.3885693764314	0.0999829089269042	0.216295941965654
7398.75	100	16	0	16	2	1	0	2	2	0	1	22.5	157.5	1.68358693552096	2.27513504991525	0.25	0	0	0	69.6385995479068	69.7385766054504	0.0999770575435832	0.250030171475373
7477.75	100	17	0	17	2	1	0	2	2	0	1	112.5	157.5	0.204331794634697	-1.58778048958381	0.216666666666667	0	0	0	69.9552736141486	70.0552367744967	0.0999631603481248	0.216697008698247
7548.75	100	18	0	18	2	1	0	2	2	0	2	67.5	112.5	-2.73115758727034	1.74532142677259	0.183333333333333	0	0	0	70.238592574955	70.3385969391093	0.100004364154302	0.18335580045823
7632	100	19	0	19	2	1	0	2	2	0	2	157.5	22.5	-2.88774911748646	1.14401616753996	0.233333333333333	0	0	0	70.5719517520629	70.6719322229037	0.0999804708408192	0.233354812953621
7715.25	100	20	0	20	2	1	0	2	2	0	1	112.5	157.5	-2.3058221166086	-0.334925249008377	0.233333333333333	0	0	0	70.9052960568806	71.0052645810647	0.099968524184078	0.23336383397691
7811.25	100	21	0	21	2	1	0	2	2	0	1	22.5	67.5	-2.09511211587028	-0.438745959075313	0.283333333333333	0	0	0	71.2886310846079	71.3886235022219	0.0999924176139757	0.28336650354322
7877.75	100	22	0	22	2	1	0	2	2	0	2	67.5	22.5	0.24007259098496	-1.56941516634422	0.166666666666667	0	0	0	71.5553127211751	71.6552983120782	0.0999855909030885	0.166689218953252
7932	100	23	0	23	2	1	0	2	2	3	2	67.5	22.5	-1.45763651155049	-0.380768511886663	0.116666666666667	0	0	0	71.7719882747624	71.8719814236974	0.0999931489350274	0.116689962684177
7982	100	24	0	24	2	1	0	2	2	3	2	157.5	112.5	-1.05410814524728	0.23913745818651	0.1	0	0	0	71.9719994412735	72.0719847882865	0.0999853470129892	0.100018017576076
8048.75	100	25	0	25	2	1	0	2	2	3	1	22.5	157.5	0.036998431342059	-3.07331625873726	0.166666666666667	0	0	0	72.23867132538	72.3386386305792	0.0999673051992431	0.166686537093483
8123.75	100	26	0	26	2	1	0	2	2	1	-1	0	135	-1.53755057164695	2.11297868754293	0.2	0	0	0	72.5386802732246	72.6386466030963	0.0999663298716769	0.200041642645374
8194.5	100	27	0	27	2	1	0	2	2	3	2	157.5	22.5	-1.01252537810266	-2.06391575779692	0.183333333333333	0	0	0	72.8220128873363	72.9219736095984	0.0999607222620398	0.183366284240037
8282	100	28	0	28	2	1	0	2	2	3	2	67.5	112.5	-2.42585671614576	-0.0893273684322793	0.25	1	0.525516504654661	1	73.1720230419887	73.2719893718604	0.0999663298716769	0.250049432390369
8361.25	100	29	0	29	2	1	0	2	2	3	1	112.5	157.5	-1.66385337125773	1.84139472506792	0.216666666666667	0	0	0	73.4887007654179	73.5886953772279	0.0999946118099615	0.216711393557489
8461.25	100	30	0	30	2	1	0	2	2	3	1	22.5	67.5	2.7897022266372	2.71835376038805	0.3	0	0	0	73.8887143213069	73.9886877216632	0.099973400356248	0.300018944079056
8536.25	100	31	0	31	2	1	0	2	2	0	2	157.5	22.5	1.75640065028961	2.9927565652515	0.2	0	0	0	74.1887157110032	74.2886937437579	0.0999780327547342	0.200027989340015
8586.25	100	32	0	32	2	1	0	2	2	0	2	67.5	112.5	1.35156744410897	-3.02277149503138	0.1	0	0	0	74.3887144431937	74.4886980835581	0.0999836403643712	0.100020699435845
8636.25	100	33	0	33	2	1	0	2	2	0	1	22.5	157.5	-0.0704167712854322	1.20450810592137	0.1	0	0	0	74.5887256095884	74.6886836499907	0.0999580404022709	0.100027526030317
8715.25	100	34	0	34	2	1	0	2	2	0	1	22.5	157.5	0.502385006827423	0.5030982361342	0.216666666666667	0	0	0	74.9053740758682	75.0053594229976	0.0999853471294045	0.216690425877459
8769.5	100	35	0	35	2	1	0	2	2	0	2	67.5	112.5	1.69805068339375	0.587768937890123	0.116666666666667	0	0	0	75.122075960855	75.2220605765469	0.0999846156919375	0.116716537857428
8852.75	100	36	0	36	2	1	0	2	2	0	2	157.5	112.5	-1.12641204323653	-2.27139789451575	0.233333333333333	0	0	0	75.4554234351963	75.5554070755607	0.0999836403643712	0.233362858649343
8940.25	100	37	0	37	2	1	0	2	2	0	2	157.5	22.5	-0.586856254978032	3.03614237393169	0.25	0	0	0	75.8054335898487	75.905437954003	0.100004364154302	0.250026514288038
9032	100	38	0	38	2	1	0	2	2	0	2	67.5	22.5	-0.752535599250309	-1.4016885958148	0.266666666666667	0	0	0	76.1721130077494	76.2720786061836	0.0999655984342098	0.26667505374644
9094.5	100	39	0	39	2	1	0	2	2	0	1	22.5	67.5	3.08651033720308	0.402575880705133	0.15	0	0	0	76.4221202611225	76.5220990253147	0.0999787641922012	0.150041654938832
9177.75	100	40	0	40	2	1	0	2	2	0	2	67.5	22.5	-2.21590112255262	-2.05979012496566	0.233333333333333	0	0	0	76.7554628591752	76.8554479624145	0.0999851032393053	0.233363833860494
9248.75	100	41	0	41	2	1	0	2	2	0	1	22.5	67.5	-2.35608610126247	-2.58083577905472	0.183333333333333	0	0	0	77.0387866961537	77.1387874032371	0.100000707083382	0.18333873373922
9298.75	100	42	0	42	2	1	0	2	2	0	1	112.5	157.5	-2.42097813836216	-0.087985323289006	0.1	0	0	0	77.238808833994	77.3387734573334	0.0999646233394742	0.100021430756897
9352.75	100	43	0	43	2	1	0	2	2	0	2	157.5	22.5	0.549200175073754	-2.02583647906016	0.116666666666667	0	0	0	77.4554790237453	77.5554599822499	0.0999809585046023	0.116705566411838
9436.25	100	44	0	44	2	1	0	2	2	0	1	22.5	157.5	2.67767644363411	-1.14830467259955	0.233333333333333	0	0	0	77.7888196713757	77.8888079441385	0.0999882727628574	0.233359689125791
9486.25	100	45	0	45	2	1	0	2	2	3	2	67.5	22.5	-2.65997621397854	2.46951384026838	0.1	0	0	0	77.9888240111759	78.0888108210638	0.0999868098879233	0.100016067037359
9561.25	100	46	0	46	2	1	0	2	2	3	1	22.5	67.5	0.315885594066732	2.64167438362547	0.2	0	0	0	78.2888332027942	78.3888165993849	0.0999833965906873	0.200022381730378
9619.5	100	47	0	47	2	1	0	2	2	3	1	112.5	67.5	0.414479852530345	2.70244752326052	0.133333333333333	0	0	0	78.5221568081761	78.6221570275957	0.100000219419599	0.133340208791196
9719.5	100	48	0	48	2	1	0	2	2	2	-1	45	0	2.84154685724373	0.874059225582615	0.3	0	0	0	78.9221852363553	79.0221674138447	0.0999821774894372	0.300028208759613
9811.25	100	49	0	49	2	1	0	2	2	3	1	22.5	157.5	-0.848909832358119	-1.72328560630681	0.266666666666667	0	0	0	79.2888575837715	79.3888424432371	0.0999848594656214	0.266690169926733
9890.5	100	50	0	50	2	1	0	2	2	3	2	67.5	112.5	-1.28458084884026	-1.17505065405839	0.216666666666667	0	0	0	79.6055340882158	79.705518947565	0.0999848593492061	0.21669164497871
9961.25	100	51	0	51	2	1	0	2	2	3	1	112.5	157.5	0.215476734797482	1.17463747795755	0.183333333333333	0	0	0	79.8888786489842	79.9888613140211	0.099982665036805	0.183359701419249
10028	100	52	0	52	2	1	0	2	2	3	2	157.5	22.5	-2.4233234023693	2.8685237200624	0.166666666666667	0	0	0	80.1555544340517	80.2555346611189	0.0999802270671353	0.166693120030686
10103	100	53	0	53	2	1	0	2	2	0	2	67.5	112.5	2.49291292837082	1.33735155639816	0.2	0	0	0	80.4555599685991	80.5555277613457	0.0999677927466109	0.200025307480246
10190.5	100	54	0	54	2	1	0	2	2	0	2	157.5	112.5	-2.46470079597709	-1.02446394965928	0.25	0	0	0	80.8055725613376	80.9055557140382	0.0999831527005881	0.250044799991883
10253	100	55	0	55	2	1	0	2	2	0	1	112.5	67.5	-2.85412602895343	0.699235186601605	0.15	0	0	0	81.0555600661319	81.1555610169889	0.100000950857066	0.150004352093674
10307	100	56	0	56	2	1	0	2	2	0	1	22.5	67.5	-1.2834163918932	1.43395309327267	0.116666666666667	0	0	0	81.2722500043456	81.3722382771084	0.0999882727628574	0.116688987356611
10407	100	57	0	57	2	1	0	2	2	0	1	22.5	157.5	0.714253188243733	0.963889115420024	0.3	0	0	0	81.6722508821404	81.7722211129731	0.099970230832696	0.300012605031952
10469.5	100	58	0	58	2	1	0	2	2	0	2	67.5	112.5	-3.05018391009976	2.96788625925227	0.15	0	0	0	81.9222627677955	82.0222522596596	0.0999894918641075	0.150041654822417
10532	100	59	0	59	2	1	0	2	2	0	2	157.5	112.5	-0.543279176964566	-1.76262711039798	0.15	0	0	0	82.1722780668642	82.2722563433927	0.0999782765284181	0.150025807204656
10603	100	60	0	60	2	1	0	2	2	0	1	112.5	157.5	2.04907231886636	2.64901297211546	0.183333333333333	0	0	0	82.4556126313983	82.5556018794887	0.0999892480904236	0.183356288005598
10682	100	61	0	61	2	1	0	2	2	0	2	157.5	112.5	1.82135852385255	1.6536985841197	0.216666666666667	0	0	0	82.7722903548274	82.8722700943472	0.0999797395197675	0.216688475338742
10740.5	100	62	0	62	2	1	0	2	2	0	2	67.5	22.5	-1.96084332575472	0.91287412391064	0.133333333333333	0	0	0	83.0056288326159	83.1056151548401	0.0999863222241402	0.133358738268726
10840.5	100	63	0	63	2	1	0	2	2	0	2	157.5	112.5	1.79392564753527	-0.825044312588072	0.3	0	0	0	83.4056404379662	83.5056243221043	0.0999838841380551	0.300025283126161
10890.5	100	64	0	64	2	1	0	2	2	0	2	157.5	112.5	0.545335713781081	0.0730848483647195	0.1	0	0	0	83.6056484348373	83.7056123266229	0.0999638917855918	0.100024112733081
10961.25	100	65	0	65	2	1	0	2	2	0	2	157.5	22.5	-2.12359200820731	1.83770640367446	0.183333333333333	0	0	0	83.8889908014098	83.9889588379301	0.0999680365202948	0.183378474786878
11028	100	66	0	66	2	1	0	2	2	0	1	22.5	157.5	-0.308450253658555	-1.86080158760216	0.166666666666667	0	0	0	84.1556612226414	84.2556431563571	0.0999819337157533	0.166702384711243
11090.5	100	67	0	67	2	1	0	2	2	0	1	112.5	157.5	1.13656564410809	-1.26469236622526	0.15	0	0	0	84.4056696951156	84.5056489468552	0.099979251739569	0.150026538758539
11178	100	68	0	68	2	1	0	2	2	0	1	112.5	67.5	-2.14291326451092	-1.25936270256904	0.25	0	0	0	84.7556715601822	84.8556569073116	0.0999853471294045	0.250022613327019
11278	100	69	0	69	2	1	0	2	2	0	1	112.5	67.5	2.16781769384218	0.328722672025977	0.3	0	0	0	85.1556590284454	85.255646082107	0.0999870536616072	0.30000212113373
11378	100	70	0	70	2	1	0	2	2	0	2	157.5	22.5	-0.40776091591325	-2.10374418499578	0.3	0	0	0	85.5556947708828	85.6556798741221	0.0999851032393053	0.30004868877586
11428	100	71	0	71	2	1	0	2	2	0	1	22.5	67.5	2.91975722497289	1.26465418659014	0.1	0	0	0	85.7557032554178	85.8556903091958	0.0999870537780225	0.100023381295614
11523.75	100	72	0	72	2	1	0	2	2	0	1	22.5	157.5	1.92571691699583	-0.221304086644752	0.283333333333333	0	0	0	86.1390497423708	86.2390165597899	0.0999668174190447	0.283359433175065
11603	100	73	0	73	2	1	0	2	2	0	2	67.5	112.5	0.269708535062227	-2.60769024449929	0.216666666666667	0	0	0	86.4557172257919	86.555705010891	0.0999877850990742	0.216700666001998
11653	100	74	0	74	2	1	0	2	2	0	2	157.5	22.5	2.00025272532421	-2.36722840835371	0.1	0	0	0	86.6557271732017	86.7556908212136	0.0999636480119079	0.100022162310779
11728	100	75	0	75	2	1	0	2	2	0	1	112.5	67.5	0.315472982338484	0.666678450478964	0.2	0	0	0	86.9557317324216	87.0557148852386	0.0999831528170034	0.200040911207907
11811.25	100	76	0	76	2	1	0	2	2	0	1	22.5	67.5	1.32959079072281	0.0876582653045346	0.233333333333333	0	0	0	87.2890589705203	87.389054069994	0.0999950994737446	0.233344085281715
11903	100	77	0	77	2	1	0	2	2	3	2	157.5	22.5	-1.16578382382556	-0.771589566065074	0.266666666666667	0	0	0	87.6557469217805	87.7557322687935	0.0999853470129892	0.266692851786502
12003	100	78	0	78	2	1	0	2	2	3	2	67.5	22.5	-1.83711152102544	-2.16280293456135	0.3	0	0	0	88.0557670604903	88.1557546018157	0.0999875413253903	0.300034791696817
12078	100	79	0	79	2	1	0	2	2	3	1	22.5	157.5	-1.14720696728029	-0.460225216634818	0.2	0	0	0	88.3557684501866	88.4557511153398	0.0999826651532203	0.200013848370872
12128	100	80	0	80	2	1	0	2	2	1	-1	0	135	-2.97029702386744	2.77524082337977	0.1	0	0	0	88.5557476775721	88.6557591122109	0.100011434638873	0.0999965622322634
12194.5	100	81	0	81	2	1	0	2	2	3	1	112.5	157.5	1.80239423426493	1.37977287312124	0.166666666666667	0	0	0	88.8224554017652	88.9224336782936	0.0999782765284181	0.166696289554238
12253	100	82	0	82	2	1	0	2	2	3	1	22.5	67.5	2.67414675784421	1.77354600794479	0.133333333333333	0	0	0	89.0557914413512	89.1557716684183	0.0999802270671353	0.133357763057575
12307	100	83	0	83	2	1	0	2	2	3	1	112.5	67.5	1.4230392412341	-0.0312536094956228	0.116666666666667	1	0.708623863058165	1	89.2724489530083	89.3724450276932	0.0999960746848956	0.116677284589969
12394.5	100	84	0	84	2	1	0	2	2	3	2	67.5	112.5	-1.1293945511699	-0.668485368373576	0.25	0	0	0	89.6224708105437	89.7224537194706	0.0999829089269042	0.250025782850571
12473.75	100	85	0	85	2	1	0	2	2	0	1	112.5	67.5	-0.683176689426197	0.860626249101545	0.216666666666667	0	0	0	89.9391485339729	90.039136319072	0.0999877850990742	0.216694814502262
12536.25	100	86	0	86	2	1	0	2	2	0	2	67.5	22.5	-0.637396727938983	-0.728996116863892	0.15	0	0	0	90.189155787346	90.2891401591478	0.0999843718018383	0.150019468273968
12603	100	87	0	87	2	1	0	2	2	0	2	157.5	22.5	-2.7382625385601	2.17062060096942	0.166666666666667	0	0	0	90.4558313286398	90.5558152128942	0.0999838842544705	0.166691169491969
12657	100	88	0	88	2	1	0	2	2	0	1	112.5	67.5	-1.14762669930015	0.277860608405699	0.116666666666667	0	0	0	90.6724732364528	90.7724507815437	0.099977545090951	0.116658023558557
12753	100	89	0	89	2	1	0	2	2	0	2	67.5	112.5	0.637409696778504	3.10584797262027	0.283333333333333	0	0	0	91.055841422407	91.1558301827172	0.0999887603102252	0.283390640863217
12819.5	100	90	0	90	2	1	0	2	2	0	1	112.5	67.5	-0.277352456612913	0.151889516786118	0.166666666666667	0	0	0	91.3225230589742	91.4225020669401	0.0999790079658851	0.166692876257002
12911.25	100	91	0	91	2	1	0	2	2	0	1	22.5	157.5	-1.57040158631315	-2.57358145739967	0.266666666666667	0	0	0	91.6891688311007	91.7891595419496	0.0999907108489424	0.266666764160618
13011.25	100	92	0	92	2	1	0	2	2	0	2	67.5	112.5	1.79155991611351	-1.53822476573721	0.3	0	0	0	92.0891960402951	92.189177486347	0.0999814460519701	0.300036498345435
13086.25	100	93	0	93	2	1	0	2	2	0	1	112.5	157.5	1.74622052056684	-2.50669916196989	0.2	0	0	0	92.3892169347964	92.4892056951066	0.0999887603102252	0.200039448449388
13186.25	100	94	0	94	2	1	0	2	2	0	1	22.5	67.5	2.45804114019152	1.48853379416263	0.3	0	0	0	92.7892295153579	92.8892151061445	0.0999855907866731	0.300023820251226
13273.75	100	95	0	95	2	1	0	2	2	0	1	112.5	157.5	2.30978589234311	-2.61556476488696	0.25	0	0	0	93.1392384510254	93.2392116074916	0.0999731564661488	0.250023344880901
13323.75	100	96	0	96	2	1	0	2	2	0	1	112.5	67.5	-0.195280760434668	2.98338759635255	0.1	0	0	0	93.3392462041229	93.4392249683151	0.0999787641922012	0.100034596631303
13390.5	100	97	0	97	2	1	0	2	2	0	2	157.5	112.5	-0.905865780246193	2.94824987873289	0.166666666666667	0	0	0	93.6059212578693	93.7059022162575	0.099980958388187	0.166696289554238
13469.75	100	98	0	98	2	1	0	2	2	0	2	67.5	22.5	-1.99037019474317	0.734521001697148	0.216666666666667	0	0	0	93.922595811775	94.0225762826158	0.0999804708408192	0.216693595517427
13540.5	100	99	0	99	2	1	0	2	2	0	2	157.5	112.5	-1.83571486001474	2.93299816820022	0.183333333333333	0	0	0	94.2059077019803	94.3058896356961	0.0999819337157533	0.183331419364549
13598.75	100	100	0	100	2	1	0	2	2	0	2	157.5	112.5	-1.88988224866515	1.17262587064141	0.133333333333333	0	0	0	94.4392520311521	94.5392605401576	0.10000850900542	0.133362395456061
13648.75	100	101	0	101	2	1	0	2	2	0	2	67.5	22.5	-0.876733167715143	-2.62631941367154	0.1	0	0	0	94.639282946242	94.7392634170828	0.0999804708408192	0.100022406084463
13719.75	100	102	0	102	2	1	0	2	2	0	2	67.5	22.5	2.01047508129531	2.20521202500624	0.183333333333333	0	0	0	94.9226187298773	95.0226018825779	0.0999831527005881	0.183355312794447
13794.75	100	103	0	103	2	1	0	2	2	0	2	67.5	22.5	-2.5797828174418	-1.62740596789863	0.2	0	0	0	95.2226274338318	95.3226047351491	0.0999773013172671	0.20002555125393
13869.75	100	104	0	104	2	1	0	2	2	0	1	22.5	157.5	1.59144718024992	2.20540323228684	0.2	0	0	0	95.5226351625752	95.6226158773061	0.0999807147309184	0.2000304274261
13928	100	105	0	105	2	1	0	2	2	0	2	157.5	22.5	-2.57303702510705	2.76458334735212	0.133333333333333	0	0	0	95.7559724212624	95.8559558178531	0.0999833965906873	0.133356543956324
13986.25	100	106	0	106	2	1	0	2	2	3	2	67.5	22.5	0.467193990100812	2.53479986149436	0.133333333333333	0	0	0	95.9893060227623	96.0893062421819	0.100000219419599	0.13335020490922
14036.25	100	107	0	107	2	1	0	2	2	3	1	22.5	67.5	-1.01232302257156	-0.645660267566527	0.1	0	0	0	96.1893198711332	96.2893049743725	0.0999851032393053	0.100013628951274
14119.75	100	108	0	108	2	1	0	2	2	3	2	157.5	22.5	-1.71263148280531	2.57663481944676	0.233333333333333	0	0	0	96.5226697835606	96.6226507420652	0.0999809585046023	0.23336480918806
14215.5	100	109	0	109	2	1	0	2	2	2	-1	135	0	2.93172225304622	-0.388747277622246	0.283333333333333	0	0	0	96.9060104190139	97.0059743107995	0.0999638917855918	0.283359676948749
14278	100	110	0	110	2	1	0	2	2	3	2	157.5	112.5	-2.88365373133684	0.76907789185311	0.15	0	0	0	97.156017672387	97.2559949737042	0.0999773013172671	0.15004336158745
14357.25	100	111	0	111	2	1	0	2	2	3	1	112.5	157.5	-1.96781289794185	-0.0756085704541478	0.216666666666667	0	0	0	97.4726844243705	97.5726739161182	0.0999894917476922	0.216689450666308
14411.25	100	112	0	112	2	1	0	2	2	3	2	67.5	112.5	1.83928817924241	-1.80946230064567	0.116666666666667	0	0	0	97.6893626598176	97.7893297211267	0.0999670613091439	0.116688743699342
14482.25	100	113	0	113	2	1	0	2	2	3	1	22.5	157.5	0.4964133210334	-0.431903011061098	0.183333333333333	0	0	0	97.972705513821	98.072673306684	0.0999677928630263	0.183375792694278
14548.75	100	114	0	114	2	1	0	2	2	0	1	112.5	157.5	2.64742933315891	0.21397100509506	0.166666666666667	0	0	0	98.2393715466605	98.3393586003222	0.0999870536616072	0.16669823997654
14640.5	100	115	0	115	2	1	0	2	2	0	1	22.5	67.5	-1.5968833004	2.57168284374375	0.266666666666667	0	0	0	98.6060538903112	98.7060141249094	0.0999602345982566	0.266695289989002
14694.75	100	116	0	116	2	1	0	2	2	0	1	22.5	157.5	-2.5073200348562	1.00851223736296	0.116666666666667	0	0	0	98.8227245676098	98.9227050384507	0.0999804708408192	0.116710442700423
14778	100	117	0	117	2	1	0	2	2	0	2	67.5	112.5	0.69989500581944	-1.39692529473772	0.233333333333333	0	0	0	99.1560674095526	99.2560461737448	0.0999787641922012	0.233362371101975
14836.25	100	118	0	118	2	1	0	2	2	0	1	112.5	157.5	1.93250483936131	-0.761211013205368	0.133333333333333	0	0	0	99.3894068624359	99.489387089503	0.0999802270671353	0.133360688691027
14915.5	100	119	0	119	2	1	0	2	2	0	1	22.5	67.5	-2.56326362786541	0.373058622548144	0.216666666666667	0	0	0	99.7060765401693	99.8060628625099	0.0999863223405555	0.216689450666308
15003	100	120	0	120	2	1	0	2	2	0	2	67.5	112.5	-1.758315318657	2.88903453208548	0.25	0	0	0	100.056081087212	100.156078137108	0.0999970498960465	0.250018224702217
15061.25	100	121	0	121	2	1	0	2	2	0	1	112.5	67.5	1.93687583484082	0.178210968861769	0.133333333333333	0	0	0	100.289416151587	100.389419296756	0.100003145169467	0.133338014478795
15144.75	100	122	0	122	2	1	0	2	2	0	1	112.5	67.5	-0.617174331053842	0.496890776651412	0.233333333333333	0	0	0	100.622780448757	100.722757993848	0.099977545090951	0.233361152000725
15203	100	123	0	123	2	1	0	2	2	0	1	22.5	67.5	-1.45729801374333	-2.94801780593641	0.133333333333333	0	0	0	100.856112831272	100.956095252535	0.0999824212631211	0.133354837424122
15294.75	100	124	0	124	2	1	0	2	2	0	1	112.5	157.5	2.30942277888253	2.97252143720528	0.266666666666667	0	0	0	101.222786885337	101.322776133311	0.0999892479740083	0.266691632801667
15390.5	100	125	0	125	2	1	0	2	2	0	2	157.5	22.5	1.43991295867705	-1.6195589284956	0.283333333333333	1	0	0	101.606134347385	101.706113355467	0.0999790080823004	0.283358214073814
15482.25	100	126	0	126	2	1	0	2	2	0	2	157.5	112.5	-3.00641571638463	-1.50547138387159	0.266666666666667	0	0	0	101.972815715824	102.072799112415	0.0999833965906873	0.266702360357158
15548.75	100	127	0	127	2	1	0	2	2	0	2	67.5	112.5	-3.07928253511519	-2.05552993560435	0.166666666666667	0	0	0	102.239465169492	102.339470508974	0.100005339481868	0.166666057077236
15607.25	100	128	0	128	2	1	0	2	2	0	2	67.5	112.5	1.57537513362102	-2.20910233535743	0.133333333333333	0	0	0	102.47282729682	102.572809961857	0.099982665036805	0.133356787846424
15698.75	100	129	0	129	2	1	0	2	2	0	2	157.5	22.5	-0.884726673258325	-1.88214544715111	0.266666666666667	0	0	0	102.839509884245	102.939485478913	0.0999755946686491	0.266699922387488
15753	100	130	0	130	2	1	0	2	2	0	1	112.5	157.5	-0.195819245327166	-1.18666968355341	0.116666666666667	0	0	0	103.056178611121	103.156164933345	0.0999863222241402	0.116693132207729
15815.5	100	131	0	131	2	1	0	2	2	0	2	157.5	22.5	2.25638664227508	1.61741544155516	0.15	0	0	0	103.306182207307	103.40617023618	0.0999880288727582	0.150017273961566
15903	100	132	0	132	2	1	0	2	2	0	1	22.5	67.5	-2.50740275609949	2.08824761712645	0.25	0	0	0	103.656195043819	103.756175270886	0.0999802270671353	0.25002480763942
15978	100	133	0	133	2	1	0	2	2	0	1	22.5	67.5	1.74512901117384	-0.336800593755958	0.2	0	0	0	103.956201309804	104.056168371113	0.0999670613091439	0.200026038917713
16040.5	100	134	0	134	2	1	0	2	2	0	1	22.5	157.5	-1.08012007033266	2.26974477685192	0.15	0	0	0	104.206208806834	104.306189033901	0.0999802270671353	0.150040435721166
16136.25	100	135	0	135	2	1	0	2	2	0	1	112.5	67.5	0.0582453436384984	2.23109144605048	0.283333333333333	0	0	0	104.589543347131	104.689523330308	0.099979983177036	0.283354313229211
16207.25	100	136	0	136	2	1	0	2	2	0	1	22.5	157.5	1.03828034410503	-2.08614591978128	0.183333333333333	0	0	0	104.872881324962	104.97288325103	0.100001926068217	0.183357994654216
16265.5	100	137	0	137	2	1	0	2	2	0	1	22.5	157.5	-2.01334352158359	-0.898775555525433	0.133333333333333	0	0	0	105.106225897907	105.20620856306	0.0999826651532203	0.133342646877281
16319.75	100	138	0	138	2	1	0	2	2	0	2	157.5	112.5	-2.20186098718094	-0.502865058977442	0.116666666666667	0	0	0	105.322900232393	105.422878752812	0.0999785204185173	0.116691669332795
16394.75	100	139	0	139	2	1	0	2	2	0	2	157.5	112.5	-2.25228204638117	-2.37630061301764	0.2	0	0	0	105.622902841191	105.722892820602	0.0999899794114754	0.200024088378996
16461.25	100	140	0	140	2	1	0	2	2	3	2	157.5	112.5	2.29679104297559	-1.82875107675477	0.166666666666667	0	0	0	105.889574725414	105.989563973388	0.0999892479740083	0.166681904811412
16561.25	100	141	0	141	2	1	0	2	2	3	2	157.5	22.5	-1.22130748651021	2.38088678640352	0.3	0	0	0	106.28959145071	106.389568508253	0.0999770575435832	0.300027477322146
16611.25	100	142	0	142	2	1	0	2	2	3	2	67.5	112.5	1.31522142592941	-1.85465972045083	0.1	0	0	0	106.489595546736	106.589576749015	0.0999812022782862	0.100027038482949
16669.75	100	143	0	143	2	1	0	2	2	3	2	67.5	22.5	2.10291402559505	1.95131616411564	0.133333333333333	0	0	0	106.722935731057	106.822915470577	0.0999797395197675	0.133358982042409
17869.75	100	144	1	0	2	1	90	2	1	3	1	22.5	67.5	1.17351916899518	0.830266940930156	0.2	0	0	0	111.52306792466	111.623049858375	0.0999819337157533	-1
17924	100	145	1	1	2	1	90	2	1	3	2	157.5	112.5	2.17161192234328	0.165734323496019	0.116666666666667	0	0	0	111.739763470599	111.839725655736	0.0999621851369739	0.116713612223975
17986.5	100	146	1	2	2	1	90	2	1	3	2	67.5	22.5	1.02426092040741	-2.64838296109845	0.15	0	0	0	111.989751219167	112.089728276711	0.0999770575435832	0.150025563430972
18036.5	100	147	1	3	2	1	90	2	1	3	2	157.5	22.5	-0.693023227440511	-2.68410484871105	0.1	0	0	0	112.189754096093	112.289734079386	0.0999799832934514	0.100025819381699
18111.5	100	148	1	4	2	1	90	2	1	0	2	157.5	22.5	0.823493264926972	2.20305436329584	0.2	0	0	0	112.48976499436	112.589726448059	0.0999614536995068	0.200030914973468
18178	100	149	1	5	2	1	90	2	1	0	2	67.5	22.5	2.95055120027005	0.899996931976465	0.166666666666667	0	0	0	112.756436147145	112.856416130438	0.0999799832934514	0.166709699085914
18236.5	100	150	1	6	2	1	90	2	1	0	1	22.5	67.5	0.889719981499359	-2.05229404382742	0.133333333333333	0	0	0	112.98977413727	113.089755827212	0.0999816899420694	0.133358006831259
18319.75	100	151	1	7	2	1	90	2	1	0	1	22.5	157.5	-1.61420224164531	2.27347049558124	0.233333333333333	0	0	0	113.323119173408	113.423102813889	0.0999836404807866	0.233363346196711
18419.75	100	152	1	8	2	1	90	2	1	0	2	67.5	22.5	-2.7634448276991	-3.00430892920465	0.3	0	0	0	113.723131510196	113.823113443912	0.0999819337157533	0.300028696306981
18519.75	100	153	1	9	2	1	90	2	1	0	2	157.5	22.5	2.73422861575108	-0.828722030565225	0.3	0	0	0	114.123144578421	114.223110176856	0.0999655984342098	0.300031134509481
18599	100	154	1	10	2	1	90	2	1	0	1	22.5	157.5	0.568599985248066	2.18422205591775	0.216666666666667	0	0	0	114.439820838976	114.539799846942	0.0999790079658851	0.216710662120022
18690.5	100	155	1	11	2	1	90	2	1	0	2	157.5	22.5	-0.9448984396467	1.32121823344066	0.266666666666667	0	0	0	114.806500988314	114.906481946819	0.0999809585046023	0.266701141372323
18786.5	100	156	1	12	2	1	90	2	1	0	1	22.5	67.5	0.661950848741159	-1.35872370664071	0.283333333333333	0	0	0	115.189840404666	115.289822826046	0.0999824213795364	0.283358457847498
18886.5	100	157	1	13	2	1	90	2	1	0	1	112.5	157.5	0.378609642231979	2.45849413722074	0.3	0	0	0	115.589871758595	115.689832968521	0.0999612099258229	0.300048932549544
18949	100	158	1	14	2	1	90	2	1	0	2	157.5	22.5	0.139309357006548	0.616242256367498	0.15	0	0	0	115.83985658153	115.939834370394	0.0999777888646349	0.150023613008671
19019.75	100	159	1	15	2	1	90	2	1	0	2	157.5	112.5	-2.759545820182	2.29646225291324	0.183333333333333	0	0	0	116.123191146064	116.223175274092	0.0999841280281544	0.183356775669381
19107.25	100	160	1	16	2	1	90	2	1	0	1	112.5	67.5	-0.922198486409055	2.46799355643756	0.25	0	0	0	116.473199594067	116.573180308682	0.0999807146145031	0.250024319975637
19207.25	100	161	1	17	2	1	90	2	1	0	2	67.5	112.5	-0.548836092448688	-0.468448677794193	0.3	0	0	0	116.873202909832	116.973203860689	0.100000950857066	0.300022601149976
19307.25	100	162	1	18	2	1	90	2	1	0	1	112.5	67.5	-1.88892442515957	1.10332946200805	0.3	1	0	0	117.273228412378	117.373214003164	0.0999855907866731	0.300024551688693
19357.25	100	163	1	19	2	1	90	2	1	0	1	112.5	67.5	2.38827160403705	0.279452927217283	0.1	0	0	0	117.473238359788	117.573198838276	0.0999604784883559	0.10002435662318
19415.5	100	164	1	20	2	1	90	2	1	0	2	67.5	112.5	-0.476769499866289	2.79435391218733	0.133333333333333	0	0	0	117.706567572779	117.806553895003	0.0999863222241402	0.133368734503165
19469.75	100	165	1	21	2	1	90	2	1	0	2	157.5	112.5	1.02029922695322	1.87339919856107	0.116666666666667	0	0	0	117.923252391047	118.02322944859	0.0999770575435832	0.116698496043682
19536.5	100	166	1	22	2	1	90	2	1	0	1	112.5	67.5	1.34175191355882	1.41885948420698	0.166666666666667	0	0	0	118.18992134952	118.289872075547	0.0999507260276005	0.166691900929436
19599	100	167	1	23	2	1	90	2	1	0	1	112.5	157.5	1.52859254978989	1.97312360223139	0.15	0	0	0	118.439917387557	118.539875184186	0.0999577966285869	0.150045312009752
19682.25	100	168	1	24	2	1	90	2	1	0	1	112.5	67.5	1.38930834705541	3.13003129282341	0.233333333333333	0	0	0	118.773266080883	118.873270688928	0.100004608044401	0.233390896697529
19765.5	100	169	1	25	2	1	90	2	1	0	1	22.5	67.5	1.58467275184457	-1.52957118262682	0.233333333333333	0	0	0	119.106586492388	119.206596464152	0.100009971763939	0.233315803459845
19853	100	170	1	26	2	1	90	2	1	0	1	22.5	67.5	-1.56086453253167	-1.87638764806102	0.25	0	0	0	119.456617858494	119.556571022607	0.0999531641136855	0.250021394342184
19907.25	100	171	1	27	2	1	90	2	1	0	2	67.5	112.5	2.99333258168314	1.55058214759347	0.116666666666667	0	0	0	119.673288779566	119.773271200946	0.0999824213795364	0.116717756958678
19990.5	100	172	1	28	2	1	90	2	1	0	1	112.5	157.5	-2.19277038737424	1.69854925881633	0.233333333333333	0	0	0	120.00663820433	120.106613311451	0.0999751071212813	0.233367003384046
20069.75	100	173	1	29	2	1	90	2	1	0	2	67.5	22.5	2.63043916177693	0.0897477479126882	0.216666666666667	0	0	0	120.323294228758	120.423299812013	0.100005583255552	0.216680917306803
20119.75	100	174	1	30	2	1	90	2	1	0	2	67.5	112.5	2.22782131876882	-0.0812050575681709	0.1	0	0	0	120.52331856091	120.623305614688	0.0999870537780225	0.100018748897128
20194.75	100	175	1	31	2	1	90	2	1	0	2	67.5	112.5	2.21271350005529	-0.604800125261406	0.2	0	0	0	120.823324339231	120.923312611994	0.0999882727628574	0.200018724543042
20269.75	100	176	1	32	2	1	90	2	1	0	1	22.5	67.5	-2.80976975314088	2.40455573015485	0.2	0	0	0	121.123333774623	121.223318390315	0.0999846156919375	0.200021162629128
20332.25	100	177	1	33	2	1	90	2	1	3	1	22.5	157.5	-2.568452531946	1.86127978111834	0.15	0	0	0	121.373338102247	121.473319060751	0.0999809585046023	0.150019711931236
20399	100	178	1	34	2	1	90	2	1	3	2	157.5	112.5	1.96698761691344	0.53154238607675	0.166666666666667	0	0	0	121.640015106532	121.73999338306	0.0999782765284181	0.166696045780554
20478.25	100	179	1	35	2	1	90	2	1	3	1	112.5	157.5	-0.19373054292765	-2.88951701222089	0.216666666666667	0	0	0	121.956692098523	122.056672569364	0.0999804708408192	0.216698715463281
20561.5	100	180	1	36	2	1	90	2	1	1	-1	90	45	-0.815223243095624	2.20628770579436	0.233333333333333	0	0	0	122.29002665088	122.390019799815	0.0999931489350274	0.233354081516154
20636.5	100	181	1	37	2	1	90	2	1	3	2	67.5	112.5	3.04538120408551	-0.261043242204904	0.2	0	0	0	122.590035842499	122.690007536206	0.09997169370763	0.200016042683274
20736.5	100	182	1	38	2	1	90	2	1	3	2	67.5	22.5	-2.88952423202355	-1.9492920908536	0.3	0	0	0	122.990050129709	123.090037427261	0.0999872975517064	0.30004259350244
20828.25	100	183	1	39	2	1	90	2	1	3	1	112.5	67.5	0.197700763760992	-1.26069426947037	0.266666666666667	0	0	0	123.356726134312	123.456691732747	0.0999655984342098	0.266688707051799
20899	100	184	1	40	2	1	90	2	1	3	1	22.5	67.5	-0.355943854138312	1.20218996767138	0.183333333333333	0	0	0	123.640068744658	123.740048240172	0.0999794955132529	0.183377011911944
20986.5	100	185	1	41	2	1	90	2	1	0	2	157.5	112.5	-2.33606867464147	-3.10699065996925	0.25	0	0	0	123.990073535475	124.090041815885	0.0999682804103941	0.250025295303203
21082.25	100	186	1	42	2	1	90	2	1	0	2	157.5	22.5	-0.658551567283052	-2.3873298893426	0.283333333333333	0	0	0	124.37342172896	124.473384401761	0.099962672800757	0.283379913074896
21178.25	100	187	1	43	2	1	90	2	1	0	2	67.5	112.5	1.30468712297932	-1.23996376920332	0.283333333333333	0	0	0	124.756747248233	124.856729425723	0.0999821774894372	0.283362846472301
21249	100	188	1	44	2	1	90	2	1	0	2	157.5	22.5	2.40215981844598	2.43279503395414	0.183333333333333	0	0	0	125.04010765662	125.140086664585	0.0999790079658851	0.183378230896778
21324	100	189	1	45	2	1	90	2	1	0	1	112.5	157.5	-2.98690244425631	1.55106988605233	0.2	0	0	0	125.340116604464	125.440095124766	0.099978520302102	0.200029939878732
21386.5	100	190	1	46	2	1	90	2	1	0	1	112.5	67.5	0.153998098500387	2.9580716532815	0.15	0	0	0	125.590122394962	125.690099940053	0.099977545090951	0.150027270196006
21482.25	100	191	1	47	2	1	90	2	1	0	1	112.5	157.5	-2.57373975955134	0.270357543375339	0.283333333333333	0	0	0	125.973467662698	126.073450815515	0.0999831528170034	0.283367722644471
21544.75	100	192	1	48	2	1	90	2	1	0	2	157.5	112.5	1.8874277563694	0.452189710105852	0.15	0	0	0	126.223468577024	126.323432956473	0.099964379449375	0.150017761508934
21632.25	100	193	1	49	2	1	90	2	1	0	1	22.5	157.5	-2.6025878462608	0.322809997705254	0.25	0	0	0	126.573463127832	126.673466273001	0.100003145169467	0.250030171358958
21719.75	100	194	1	50	2	1	90	2	1	0	2	67.5	22.5	-2.92674968137123	0.161020533222897	0.25	0	0	0	126.92348986154	127.023471063818	0.0999812022782862	0.25002358853817
21799	100	195	1	51	2	1	90	2	1	0	1	112.5	67.5	-0.727365394211287	0.264148698770241	0.216666666666667	0	0	0	127.240161245922	127.340147568262	0.0999863223405555	0.216690182103775
21899	100	196	1	52	2	1	90	2	1	0	2	157.5	112.5	1.46150769801724	2.00161895658533	0.3	0	0	0	127.640171144623	127.740158929839	0.0999877852154896	0.300023576361127
21969.75	100	197	1	53	2	1	90	2	1	0	2	67.5	112.5	-1.17365696172376	2.84859977261081	0.183333333333333	0	0	0	127.923513998743	128.023497882881	0.0999838841380551	0.183355068904348
22024	100	198	1	54	2	1	90	2	1	0	1	22.5	157.5	-2.32474777822841	-0.57616325870161	0.116666666666667	0	0	0	128.140174436034	128.240174167906	0.0999997318722308	0.116676553152502
22086.5	100	199	1	55	2	1	90	2	1	0	1	22.5	157.5	1.85085185770879	0.816595702763268	0.15	0	0	0	128.390204851283	128.490183127928	0.0999782766448334	0.150030683376826
22136.5	100	200	1	56	2	1	90	2	1	0	1	112.5	157.5	1.92843135081247	-1.20788326590028	0.1	0	0	0	128.590206021559	128.690186980064	0.0999809585046023	0.100022893631831
22228.25	100	201	1	57	2	1	90	2	1	0	2	67.5	22.5	2.23593305906371	-1.24463374926755	0.266666666666667	0	0	0	128.956879344303	129.056851769448	0.0999724251450971	0.266692364239134
22286.5	100	202	1	58	2	1	90	2	1	0	1	22.5	157.5	-1.23310984204007	0.0396930844548611	0.133333333333333	0	0	0	129.190220991499	129.290191953769	0.099970962270163	0.133369222050533
22344.75	100	203	1	59	2	1	90	2	1	0	2	67.5	22.5	-0.472304771191579	0.542035685148009	0.133333333333333	0	0	0	129.42356141971	129.523542134324	0.0999807146145031	0.133369465940632
22440.75	100	204	1	60	2	1	90	2	1	0	2	67.5	22.5	-1.59976184716258	0.314124500457138	0.283333333333333	0	0	0	129.806910344632	129.90688764595	0.0999773013172671	0.283368210308254
22494.75	100	205	1	61	2	1	90	2	1	0	1	22.5	67.5	0.359256784022675	2.99443858885252	0.116666666666667	0	0	0	130.023575170548	130.123552959529	0.0999777889810503	0.116687524598092
22544.75	100	206	1	62	2	1	90	2	1	0	2	157.5	22.5	-1.06746815342177	-2.11761416741297	0.1	0	0	0	130.223580485675	130.323548765969	0.0999682802939788	0.100027526146732
22644.75	100	207	1	63	2	1	90	2	1	0	1	22.5	157.5	-1.01370815701167	0.858687831695972	0.3	0	0	0	130.623599649058	130.723554032273	0.0999543832149357	0.300050883088261
22719.75	100	208	1	64	2	1	90	2	1	0	2	157.5	112.5	1.78204592895349	3.10722996831954	0.2	0	0	0	130.92359786923	131.023578827735	0.0999809585046023	0.200043836957775
22774	100	209	1	65	2	1	90	2	1	0	1	112.5	67.5	2.86699332848719	1.48368176296595	0.116666666666667	0	0	0	131.140275129466	131.240222442197	0.0999473127303645	0.116696301731281
22861.5	100	210	1	66	2	1	90	2	1	0	1	112.5	157.5	0.528669217569801	0.414115408248735	0.25	0	0	0	131.490248712711	131.590261366335	0.100012653623708	0.250026270514354
22932.25	100	211	1	67	2	1	90	2	1	0	2	67.5	22.5	-2.48381898922103	-0.827098705468115	0.183333333333333	0	0	0	131.77362350584	131.873624212923	0.100000707083382	0.183362139505334
22999	100	212	1	68	2	1	90	2	1	0	1	22.5	157.5	0.95865657528786	-0.614879529443337	0.166666666666667	0	0	0	132.040296852938	132.140275860904	0.0999790079658851	0.16667264001444
23099	100	213	1	69	2	1	90	2	1	0	1	22.5	67.5	-0.322882099378142	2.74275547936038	0.3	0	0	0	132.440289197257	132.540260403301	0.0999712060438469	0.300013336353004
23165.75	100	214	1	70	2	1	90	2	1	0	1	22.5	67.5	3.0663864253624	2.48393447224277	0.166666666666667	0	0	0	132.706976929097	132.806959838024	0.0999829089269042	0.166716525796801
23219.75	100	215	1	71	2	1	90	2	1	0	1	112.5	157.5	1.37841458698092	1.06610756664321	0.116666666666667	0	0	0	132.92365370167	133.023635147722	0.0999814460519701	0.116693863645196
23319.75	100	216	1	72	2	1	90	2	1	3	2	67.5	22.5	2.10352314545396	2.50540689541473	0.3	0	0	0	133.323662868934	133.423650410259	0.0999875413253903	0.300027721212246
23369.75	100	217	1	73	2	1	90	2	1	3	1	112.5	67.5	1.2647188725517	2.6713819969002	0.1	0	0	0	133.523667208734	133.623675230076	0.100008021341637	0.100016798474826
23449	100	218	1	74	2	1	90	2	1	3	1	112.5	157.5	0.223800813813401	2.17614082707725	0.216666666666667	0	0	0	133.840343713062	133.940326134441	0.0999824213795364	0.216668482986279
23519.75	100	219	1	75	2	1	90	2	1	1	-1	90	45	2.49328348915311	-0.732517664788849	0.183333333333333	0	0	0	134.123688761494	134.223669476109	0.0999807146145031	0.183362627052702
23594.75	100	220	1	76	2	1	90	2	1	3	1	22.5	67.5	2.08361146858338	-0.223903555031071	0.2	0	0	0	134.423700634972	134.523680374376	0.0999797394033521	0.200031158863567
23661.5	100	221	1	77	2	1	90	2	1	3	2	67.5	112.5	-1.31113811693039	1.85924167657222	0.166666666666667	0	0	0	134.690369837335	134.790335679543	0.0999658422078937	0.166689462959766
23715.75	100	222	1	78	2	1	90	2	1	3	2	157.5	22.5	-2.15493215678438	-0.800270275859062	0.116666666666667	0	0	0	134.907046853681	135.007026593084	0.0999797394033521	0.11671117413789
23778.25	100	223	1	79	2	1	90	2	1	3	1	22.5	157.5	-0.814603233136447	1.56679901911198	0.15	0	0	0	135.157053131727	135.257032383583	0.0999792518559843	0.150026538642123
23870	100	224	1	80	2	1	90	2	1	0	1	22.5	67.5	0.132434922617613	-0.116739188274859	0.266666666666667	0	0	0	135.523727917345	135.623713508132	0.0999855907866731	0.266695533762686
23965.75	100	225	1	81	2	1	90	2	1	0	1	112.5	67.5	-2.52973550395416	-1.0270412682641	0.283333333333333	0	0	0	135.907069040346	136.007051949273	0.0999829089269042	0.283355532214046
24024	100	226	1	82	2	1	90	2	1	0	1	112.5	67.5	-0.971510595526162	-0.275528434542283	0.133333333333333	0	0	0	136.140399472322	136.24039213371	0.0999926613876596	0.133347523049451
24086.5	100	227	1	83	2	1	90	2	1	0	2	67.5	22.5	0.47064616880124	-2.40954215108702	0.15	0	0	0	136.390419160016	136.490399143193	0.099979983177036	0.150027026305906
24145	100	228	1	84	2	1	90	2	1	0	2	157.5	112.5	-2.86780525053885	-0.914223846205126	0.133333333333333	0	0	0	136.623757637688	136.723717384739	0.0999597470508888	0.133358494495042
24228.25	100	229	1	85	2	1	90	2	1	0	2	67.5	112.5	1.97888089681877	-0.532849107861014	0.233333333333333	0	0	0	136.957083169138	137.057065346627	0.0999821774894372	0.233365784399211
24311.5	100	230	1	86	2	1	90	2	1	0	2	67.5	22.5	0.949496401101559	-3.02746753543723	0.233333333333333	0	0	0	137.290468190098	137.390395510476	0.0999273203779012	0.233402843470685
24378.25	100	231	1	87	2	1	90	2	1	0	2	67.5	112.5	-1.17087050386263	-2.06041998953593	0.166666666666667	0	0	0	137.55711252382	137.657098358497	0.0999858346767724	0.166717013344169
24461.5	100	232	1	88	2	1	90	2	1	0	2	157.5	112.5	-1.26718664734392	-1.50650019394724	0.233333333333333	0	0	0	137.890458291396	137.990437055589	0.0999787641922012	0.233359932899475
24528.25	100	233	1	89	2	1	90	2	1	0	1	112.5	157.5	-0.926040098717391	2.24865166647268	0.166666666666667	0	0	0	138.157133588917	138.257099431241	0.0999658423243091	0.166696533327922
24595	100	234	1	90	2	1	90	2	1	0	2	157.5	22.5	-1.09774349700203	0.562829749993652	0.166666666666667	0	0	0	138.423785724561	138.523764732527	0.0999790079658851	0.166686293319799
24682.5	100	235	1	91	2	1	90	2	1	3	1	112.5	67.5	1.56145811201894	-1.33740799639205	0.25	0	0	0	138.773817578331	138.873801462469	0.0999838841380551	0.250052845804021
24757.5	100	236	1	92	2	1	90	2	1	3	2	157.5	22.5	0.00664043133515735	3.12730906848725	0.2	0	0	0	139.073825307074	139.173789686407	0.0999643793329597	0.200023844605312
24824	100	237	1	93	2	1	90	2	1	3	2	67.5	112.5	0.164169562014417	-1.52102972912644	0.166666666666667	0	0	0	139.34050036082	139.440481075435	0.0999807146145031	0.16671067441348
24882.5	100	238	1	94	2	1	90	2	1	2	-1	45	90	-2.20692800490825	0.0866346774899043	0.133333333333333	0	0	0	139.573821284226	139.673802730278	0.0999814460519701	0.133340208791196
24936.5	100	239	1	95	2	1	90	2	1	3	1	22.5	67.5	2.60386510382177	1.50494719702756	0.116666666666667	0	0	0	139.790513904416	139.890477064764	0.0999631603481248	0.11671117413789
25015.75	100	240	1	96	2	1	90	2	1	3	1	112.5	157.5	-1.09595761174036	1.20210240940731	0.216666666666667	1	0.425544323283248	-1	140.107164321118	140.207151131006	0.0999868098879233	0.216687256353907
25086.5	100	241	1	97	2	1	90	2	1	3	2	67.5	22.5	-1.08344449918985	-0.417814958505973	0.183333333333333	0	0	0	140.390527655254	140.490492522251	0.0999648669967428	0.18337652424816
25186.5	100	242	1	98	2	1	90	2	1	3	2	157.5	112.5	-2.70901960018434	1.74042783001787	0.3	0	0	0	140.790527801495	140.89049754478	0.0999697432853281	0.300035279244184
25236.5	100	243	1	99	2	1	90	2	1	0	2	157.5	112.5	3.01223180655461	-0.089258262941593	0.1	0	0	0	140.990520682302	141.09051017405	0.0999894917476922	0.10002313752193
25295	100	244	1	100	2	1	90	2	1	0	1	112.5	157.5	-0.1275622220481	1.35380694662627	0.133333333333333	0	0	0	141.223866718123	141.323863280355	0.0999965622322634	0.13335654407274
25361.5	100	245	1	101	2	1	90	2	1	0	2	157.5	112.5	2.59423131486294	-0.0541827897704175	0.166666666666667	0	0	0	141.490553718526	141.590539796976	0.0999860784504563	0.166690438170917
25415.75	100	246	1	102	2	1	90	2	1	0	2	67.5	22.5	2.68679837515684	2.96248847800713	0.116666666666667	0	0	0	141.707212936832	141.807196577196	0.0999836403643712	0.116673139855266
25511.5	100	247	1	103	2	1	90	2	1	0	1	22.5	157.5	2.95153976403428	1.35829862454753	0.283333333333333	0	0	0	142.090575027512	142.190557692549	0.099982665036805	0.283378450316377
25590.75	100	248	1	104	2	1	90	2	1	0	1	112.5	157.5	1.9831573031902	-2.5674525442474	0.216666666666667	0	0	0	142.407223006128	142.507234440767	0.100011434638873	0.216665313579142
25670	100	249	1	105	2	1	90	2	1	0	1	22.5	67.5	2.67313862156115	-2.32810785782168	0.216666666666667	0	0	0	142.723921453347	142.823908019462	0.0999865661142394	0.216687012580223
25732.5	100	250	1	106	2	1	90	2	1	0	1	22.5	67.5	2.65332207373685	2.93119891892939	0.15	0	0	0	142.973934070556	143.073914541397	0.0999804708408192	0.150026051094756
25790.75	100	251	1	107	2	1	90	2	1	0	2	157.5	22.5	1.8935489675126	-1.70130829371638	0.133333333333333	0	0	0	143.207277180627	143.307255457155	0.0999782765284181	0.133362639229745
25882.5	100	252	1	108	2	1	90	2	1	0	2	67.5	112.5	-2.29599393432804	-2.9773750151063	0.266666666666667	0	0	0	143.573944164207	143.673927560798	0.0999833965906873	0.266688707051799
25953.25	100	253	1	109	2	1	90	2	1	0	1	112.5	67.5	0.148985145074317	-1.55054091962675	0.183333333333333	0	0	0	143.85729286971	143.957268952043	0.0999760823324323	0.183365308912471
26040.75	100	254	1	110	2	1	90	2	1	0	2	67.5	112.5	0.475034023671485	-0.127001663646931	0.25	0	0	0	144.207295222557	144.307258870569	0.0999636480119079	0.250026270514354
26132.5	100	255	1	111	2	1	90	2	1	0	1	112.5	67.5	3.09445323166489	2.84105886673193	0.266666666666667	0	0	0	144.573963425239	144.673941457993	0.0999780327547342	0.266704554669559
26224	100	256	1	112	2	1	90	2	1	0	2	157.5	112.5	1.78410135714291	-0.633785516453474	0.266666666666667	0	0	0	144.940648206859	145.040633066325	0.0999848594656214	0.266706748865545
26274	100	257	1	113	2	1	90	2	1	0	2	67.5	22.5	1.27496019107489	1.40432702522582	0.1	0	0	0	145.140641087666	145.240638381336	0.0999972936697304	0.100008021341637
26357.5	100	258	1	114	2	1	90	2	1	0	2	157.5	22.5	1.54974160433097	2.10086168418205	0.233333333333333	0	0	0	145.473990756203	145.573971227044	0.0999804708408192	0.233352374867536
26420	100	259	1	115	2	1	90	2	1	0	2	67.5	112.5	-0.869732558897645	-2.58137117457592	0.15	0	0	0	145.72399849724	145.823982137605	0.0999836403643712	0.150027270196006
26499	100	260	1	116	2	1	90	2	1	0	2	67.5	112.5	2.77913804778798	0.703037886394781	0.216666666666667	0	0	0	146.040669637732	146.140646207728	0.0999765699962154	0.216687500127591
26553.25	100	261	1	117	2	1	90	2	1	0	2	157.5	22.5	0.901642681197605	3.11510499100802	0.116666666666667	0	0	0	146.257317884592	146.357332244981	0.100014360388741	0.116671676863916
26649	100	262	1	118	2	1	90	2	1	0	2	157.5	112.5	-0.612141788230419	0.31162066096064	0.283333333333333	0	0	0	146.640695579117	146.740643867059	0.0999482879415154	0.283363334136084
26724	100	263	1	119	2	1	90	2	1	0	1	22.5	157.5	-0.222603344980214	0.216683045193061	0.2	0	0	0	146.940684290719	147.04067036917	0.0999860784504563	0.200040423660539
26774	100	264	1	120	2	1	90	2	1	0	1	22.5	67.5	3.0143891103258	-0.963196355958354	0.1	0	0	0	147.140710329637	147.240692263353	0.0999819337157533	0.100039960467257
26853.25	100	265	1	121	2	1	90	2	1	0	2	157.5	22.5	0.201868674685067	2.80296286735039	0.216666666666667	0	0	0	147.457389028277	147.55737169343	0.0999826651532203	0.216696764924563
26940.75	100	266	1	122	2	1	90	2	1	0	2	157.5	22.5	-2.08728964160227	2.9505790386038	0.25	0	0	0	147.807388211484	147.907376971911	0.0999887604266405	0.250016518053599
27032.5	100	267	1	123	2	1	90	2	1	0	1	112.5	157.5	-2.20945073420002	-2.49335737403876	0.266666666666667	0	0	0	148.174053976079	148.274034690694	0.0999807146145031	0.266677004168741
27103.25	100	268	1	124	2	1	90	2	1	0	1	22.5	157.5	1.17647741892399	0.331964934202978	0.183333333333333	0	0	0	148.457411458716	148.557396074408	0.0999846156919375	0.183376768021844
27174	100	269	1	125	2	1	90	2	1	0	1	22.5	67.5	0.394430293495642	-0.504984442037098	0.183333333333333	0	0	0	148.740729444311	148.840750143747	0.100020699435845	0.183333369903266
27249	100	270	1	126	2	1	90	2	1	0	1	112.5	67.5	2.55603912316199	1.07848463644412	0.2	0	0	0	149.040751557797	149.140736173373	0.0999846155755222	0.200001414050348
27328.25	100	271	1	127	2	1	90	2	1	0	2	157.5	112.5	-1.98171448415849	-2.39611384995351	0.216666666666667	0	0	0	149.35743830225	149.457417310216	0.0999790079658851	0.216702128876932
27403.25	100	272	1	128	2	1	90	2	1	0	2	67.5	22.5	-0.558519795529094	-1.47444813554103	0.2	0	0	0	149.657450175728	149.757428696146	0.0999785204185173	0.200032865512185
27453.25	100	273	1	129	2	1	90	2	1	0	1	22.5	157.5	1.43231629635503	-1.39013351939118	0.1	0	0	0	149.857453052653	149.957431329298	0.0999782766448334	0.100024356506765
27524.25	100	274	1	130	2	1	90	2	1	0	1	112.5	157.5	-2.8267734407592	-0.1274673617127	0.183333333333333	0	0	0	150.140794687788	150.240774183301	0.0999794955132529	0.183363358490169
27615.75	100	275	1	131	2	1	90	2	1	0	1	22.5	157.5	-2.51815988638887	1.84275039639923	0.266666666666667	0	0	0	150.507470204728	150.607455551741	0.0999853470129892	0.266696021426469
27695	100	276	1	132	2	1	90	2	1	3	1	22.5	157.5	0.287191214674552	2.24842223038545	0.216666666666667	0	0	0	150.824150122353	150.924126936123	0.0999768137698993	0.216694570612162
27753.25	100	277	1	133	2	1	90	2	1	3	2	67.5	112.5	-1.47196674418908	1.79965280684812	0.133333333333333	0	0	0	151.057489087689	151.157471021404	0.0999819337157533	0.133362151565962
27824.25	100	278	1	134	2	1	90	2	1	3	1	112.5	157.5	-2.46968392014554	1.11091010580714	0.183333333333333	0	0	0	151.340828772285	151.440790225985	0.0999614536995068	0.183357750880532
27907.5	100	279	1	135	2	1	90	2	1	3	1	112.5	67.5	-1.49729833628569	-2.59374439811937	0.233333333333333	0	0	0	151.674164787517	151.774149159319	0.0999843718018383	0.233374561532401
29153.25	100	280	2	0	1	1	90	2	2	3	1	112.5	67.5	2.33274576892938	-1.89640582650757	0.2	0	0	0	156.657634983421	156.757618136122	0.0999831527005881	-1
29228.25	100	281	2	1	1	1	90	2	2	3	2	157.5	22.5	-1.1289714301375	-2.1797052914299	0.2	0	0	0	156.957656853134	157.05760660395	0.0999497508164495	0.200038717011921
29303.25	100	282	2	2	1	1	90	2	2	3	2	67.5	22.5	0.481719078595507	-2.01494404965969	0.2	0	0	0	157.257647759048	157.357628229889	0.0999804708408192	0.200041155098006
29378.25	100	283	2	3	1	1	90	2	2	3	1	22.5	67.5	0.109673331767729	-2.63067909914402	0.2	0	0	0	157.557657682104	157.657639128156	0.0999814460519701	0.200029452214949
29453.25	100	284	2	4	1	1	90	2	2	0	2	157.5	112.5	-1.50190251969617	-2.88521037696282	0.2	0	0	0	157.857665654621	157.957629302633	0.0999636480119079	0.200026526465081
29528.25	100	285	2	5	1	1	90	2	2	0	1	22.5	67.5	-0.638407759052432	-1.1292754319608	0.2	0	0	0	158.157672895817	158.257664338103	0.0999914422864094	0.200043593184091
29603.25	100	286	2	6	1	1	90	2	2	0	2	67.5	22.5	0.275115544440404	-0.287876505437398	0.2	0	0	0	158.457682087435	158.557664508815	0.0999824213795364	0.200017749331892
29678.25	100	287	2	7	1	1	90	2	2	0	2	157.5	22.5	-0.93041527771816	1.98775272587797	0.2	0	0	0	158.757693229476	158.857672725106	0.0999794956296682	0.200028720661066
29753.25	100	288	2	8	1	1	90	2	2	0	1	112.5	157.5	3.05854125139146	0.167093574356215	0.2	0	0	0	159.057697544922	159.157677528216	0.0999799832934514	0.200024819816463
29828.25	100	289	2	9	1	1	90	2	2	0	1	22.5	67.5	-0.719691238886546	-2.90162405269426	0.2	0	0	0	159.357705029892	159.457669409341	0.099964379449375	0.200027501676232
29903.25	100	290	2	10	1	1	90	2	2	0	2	67.5	22.5	-0.603008628092623	-0.486655066865167	0.2	0	0	0	159.657711783424	159.757680795272	0.0999690118478611	0.200042374082841
29978.25	100	291	2	11	1	1	90	2	2	0	2	67.5	112.5	0.179665511770342	1.97948905589794	0.2	0	0	0	159.957727801753	160.057706078282	0.0999782765284181	0.200047006481327
30053.25	100	292	2	12	1	1	90	2	2	0	2	157.5	112.5	-0.217014591545268	-1.52516701433084	0.2	0	0	0	160.257738456246	160.357723559486	0.0999851032393053	0.200032377964817
30128.25	100	293	2	13	1	1	90	2	2	0	1	22.5	157.5	-2.58548275839705	0.120167460248845	0.2	0	0	0	160.557739358279	160.657722511096	0.0999831528170034	0.200015798793174
30203.25	100	294	2	14	1	1	90	2	2	0	2	67.5	112.5	1.6321237008367	2.88169083537952	0.2	0	0	0	160.85774245474	160.957727070316	0.0999846155755222	0.200019943644293
30278.25	100	295	2	15	1	1	90	2	2	0	1	112.5	157.5	0.394461717470647	-1.95496512903558	0.2	0	0	0	161.157753353007	161.257736261934	0.0999829089269042	0.200026282691397
30353.25	100	296	2	16	1	1	90	2	2	0	2	67.5	22.5	-2.30526575214959	-2.88657468589061	0.2	0	0	0	161.457760837977	161.557745697326	0.0999848593492061	0.200024576042779
30428.25	100	297	2	17	1	1	90	2	2	0	1	112.5	67.5	0.739944723257274	2.15629133243504	0.2	1	0	0	161.757745892392	161.857758546132	0.100012653740123	0.200000195065513
30503.25	100	298	2	18	1	1	90	2	2	0	2	67.5	112.5	0.162731450520979	-0.769078672727721	0.2	0	0	0	162.057783365948	162.157745551085	0.0999621851369739	0.200024819816463
30578.25	100	299	2	19	1	1	90	2	2	3	1	22.5	157.5	0.107920896934498	-0.638126621145183	0.2	0	0	0	162.357790850918	162.457773272181	0.0999824212631211	0.200045299832709
30653.25	100	300	2	20	1	1	90	2	2	3	2	157.5	112.5	2.17539458963157	-0.464612985252041	0.2	0	0	0	162.657800773974	162.757761252462	0.0999604784883559	0.200027501792647
30728.25	100	301	2	21	1	1	90	2	2	3	1	22.5	67.5	-2.23204516600075	-0.360189608824713	0.2	0	0	0	162.957801676006	163.057786779245	0.0999851032393053	0.200040423544124
30803.25	100	302	2	22	1	1	90	2	2	2	-1	135	90	-1.1394199195424	0.406940971925415	0.2	0	0	0	163.257794532459	163.357779148035	0.0999846155755222	0.200007753213868
30878.25	100	303	2	23	1	1	90	2	2	3	1	112.5	67.5	-2.88489468129963	-2.99135012054279	0.2	0	0	0	163.557820059243	163.657801261521	0.0999812022782862	0.200040911207907
30953.5	100	304	2	24	1	1	90	2	2	3	2	67.5	112.5	-0.575366114621509	-0.172804198210811	0.2	0	0	0	163.857824374689	163.957810453139	0.0999860784504563	0.200023113167845
31028.5	100	305	2	25	1	1	90	2	2	3	2	67.5	22.5	2.10309372689576	1.45571751455642	0.2	0	0	0	164.157835029182	164.257817694335	0.0999826651532203	0.200024576042779
31103.5	100	306	2	26	1	1	90	2	2	3	1	112.5	157.5	-0.158540349034717	-0.506760104986081	0.2	0	0	0	164.457842757925	164.557823228766	0.0999804708408192	0.200025063590147
31178.5	100	307	2	27	1	1	90	2	2	0	2	157.5	112.5	0.0162414278884584	2.49654790076787	0.2	0	0	0	164.757856581942	164.857832176611	0.0999755946686491	0.200033353175968
31253.5	100	308	2	28	1	1	90	2	2	0	2	157.5	112.5	1.7894548798525	-2.13393417335373	0.2	0	0	0	165.057857484091	165.157840636792	0.0999831527005881	0.200025307480246
31328.5	100	309	2	29	1	1	90	2	2	0	1	22.5	67.5	1.87390610351336	0.272134760100734	0.2	0	0	0	165.357863993733	165.457854460808	0.0999904670752585	0.200023356941529
31403.5	100	310	2	30	1	1	90	2	2	0	2	157.5	112.5	-2.92533220637673	1.74370301540648	0.2	0	0	0	165.657875867328	165.75785731338	0.0999814460519701	0.200021406519227
31478.5	100	311	2	31	1	1	90	2	2	0	2	67.5	112.5	0.347890879834153	1.43653544029558	0.2	0	0	0	165.957883352297	166.057863579364	0.0999802270671353	0.200026038917713
31553.5	100	312	2	32	1	1	90	2	2	0	2	157.5	112.5	0.288539519947461	0.772717925228176	0.2	0	0	0	166.257892056252	166.357874233741	0.0999821774894372	0.200028476887383
31628.5	100	313	2	33	1	1	90	2	2	0	1	112.5	67.5	0.278330733711867	-1.46274384030688	0.2	0	0	0	166.557894665049	166.657880987274	0.0999863222241402	0.200020431308076
31703.5	100	314	2	34	1	1	90	2	2	0	1	22.5	67.5	0.577156481635948	-0.54671080203406	0.2	0	0	0	166.857909464277	166.957890422782	0.0999809585046023	0.200028477003798
31778.5	100	315	2	35	1	1	90	2	2	0	2	67.5	22.5	-1.7743567573112	-0.11742160950761	0.2	0	0	0	167.157916461583	167.257894494338	0.0999780327547342	0.200026038801298
31853.5	100	316	2	36	1	1	90	2	2	0	2	157.5	22.5	-1.23015584237686	2.87735071600229	0.2	0	0	0	167.457928335178	167.557908562128	0.09998022695072	0.200033840839751
31928.5	100	317	2	37	1	1	90	2	2	0	1	112.5	67.5	-0.752175459661925	2.74074831121931	0.2	0	0	0	167.757928749663	167.857919704285	0.0999909546226263	0.200020187534392
32003.5	100	318	2	38	1	1	90	2	2	0	2	157.5	22.5	-1.25934584691688	-0.272183287835012	0.2	0	0	0	168.057926238398	168.157907928224	0.099981689825654	0.200006534112617
32078.5	100	319	2	39	1	1	90	2	2	0	1	112.5	157.5	0.112483701965787	-0.643634868639341	0.2	0	0	0	168.35795639758	168.457944182795	0.0999877852154896	0.200048469356261
32153.5	100	320	2	40	1	1	90	2	2	0	2	67.5	112.5	2.71798384822793	-0.775576281854826	0.2	0	0	0	168.657960956916	168.757941915304	0.099980958388187	0.200016774120741
32228.5	100	321	2	41	1	1	90	2	2	0	1	22.5	67.5	-1.46565716793069	-1.63275442506375	0.2	0	0	0	168.957972098957	169.057954032673	0.0999819337157533	0.200030183652416
32303.5	100	322	2	42	1	1	90	2	2	0	1	22.5	67.5	0.225133145533353	0.265043096692978	0.2	0	0	0	169.257975195302	169.357958835666	0.0999836403643712	0.200021162629128
32378.5	100	323	2	43	1	1	90	2	2	0	2	67.5	112.5	1.51086305576832	1.96021804535469	0.2	0	0	0	169.557986093685	169.657951204455	0.0999651107704267	0.200027258018963
32453.5	100	324	2	44	1	1	90	2	2	0	1	112.5	157.5	2.4317932355393	1.36035880076187	0.2	0	0	0	169.857996016741	169.957974049496	0.0999780327547342	0.200044812285341
32528.5	100	325	2	45	1	1	90	2	2	0	1	112.5	157.5	-1.69715003180632	0.195428544998494	0.2	0	0	0	170.158001307398	170.257987142075	0.0999858346767724	0.200027257902548
32603.5	100	326	2	46	1	1	90	2	2	0	2	157.5	112.5	-1.81625097263688	-1.478234151824	0.2	0	0	0	170.458011230454	170.557995846029	0.0999846155755222	0.200024088378996
32678.5	100	327	2	47	1	1	90	2	2	0	1	22.5	67.5	-2.10673802454625	2.21303565158789	0.2	0	0	0	170.758041145862	170.857997235726	0.0999560898635536	0.200045299832709
32753.5	100	328	2	48	1	1	90	2	2	0	2	67.5	22.5	0.991993553712935	-2.68619738477196	0.2	0	0	0	171.058018154581	171.158004964469	0.0999868098879233	0.200020918855444
32828.5	100	329	2	49	1	1	90	2	2	0	2	67.5	112.5	-0.612130010860428	1.31319147435528	0.2	0	0	0	171.358030271949	171.458009036141	0.0999787641922012	0.200025307480246
32903.5	100	330	2	50	1	1	90	2	2	0	1	112.5	157.5	-1.36512301146028	-0.69229201039574	0.2	0	0	0	171.658036781708	171.758021641057	0.0999848593492061	0.200027745566331
32978.5	100	331	2	51	1	1	90	2	2	0	1	22.5	157.5	-2.19302071057986	-1.48301501603282	0.2	0	0	0	171.958050605608	172.058027419378	0.0999768137698993	0.200028964551166
33053.5	100	332	2	52	1	1	90	2	2	0	2	67.5	112.5	-2.5200013439963	1.69649295401451	0.2	0	0	0	172.258049557335	172.358040755731	0.0999911983963102	0.200022137956694
33128.5	100	333	2	53	1	1	90	2	2	0	2	67.5	22.5	2.80388407918407	0.552306498830355	0.2	0	0	0	172.55808849365	172.658043364529	0.0999548708787188	0.200047737918794
33203.5	100	334	2	54	1	1	90	2	2	0	1	112.5	67.5	1.30762666087054	-0.0587537853841624	0.2	0	0	0	172.85806940333	172.958052312373	0.0999829090433195	0.200026038801298
33278.5	100	335	2	55	1	1	90	2	2	0	1	22.5	157.5	-0.43927546868232	-2.14035870166568	0.2	0	0	0	173.158079814049	173.258060528664	0.0999807146145031	0.200027501676232
33353.5	100	336	2	56	1	1	90	2	2	0	1	22.5	157.5	2.86331296737753	-0.10350105102083	0.2	0	0	0	173.458087786683	173.55807045172	0.099982665036805	0.200027258018963
33428.5	100	337	2	57	1	1	90	2	2	3	2	67.5	112.5	2.77572235746106	-1.76175019732891	0.2	0	0	0	173.758091126801	173.858077936689	0.0999868098879233	0.20002067508176
33503.5	100	338	2	58	1	1	90	2	2	3	1	112.5	67.5	-1.77120961689765	-2.43204249118493	0.2	0	0	0	174.058102756506	174.158084446448	0.0999816899420694	0.200024819816463
33578.5	100	339	2	59	1	1	90	2	2	3	2	157.5	22.5	-0.19703087154549	-2.78479909745593	0.2	0	0	0	174.358112435788	174.45809119998	0.0999787641922012	0.200027989340015
33653.5	100	340	2	60	1	1	90	2	2	1	-1	90	45	1.0089359283825	-2.71331872351468	0.2	0	0	0	174.658118945546	174.75809868495	0.0999797394033521	0.200027745566331
33728.5	100	341	2	61	1	1	90	2	2	3	2	67.5	22.5	-2.46425474954588	-0.198322137283947	0.2	0	0	0	174.958128624712	175.058111777529	0.0999831528170034	0.200029939762317
33803.5	100	342	2	62	1	1	90	2	2	3	1	112.5	157.5	2.28834601916367	1.44227022667525	0.2	1	0.49217602761928	1	175.258138547768	175.35812023771	0.0999816899420694	0.200026770238765
33878.5	100	343	2	63	1	1	90	2	2	3	1	22.5	157.5	-0.598245303966619	-0.199167388593588	0.2	0	0	0	175.558122139424	175.658126503578	0.100004364154302	0.200001901714131
33953.5	100	344	2	64	1	1	90	2	2	3	2	157.5	112.5	-1.73453767816076	-2.98461587655521	0.2	0	0	0	175.858152298606	175.958131062798	0.0999787641922012	0.200025795027614
34028.5	100	345	2	65	1	1	90	2	2	0	1	112.5	67.5	-2.34302549648479	-1.43606732733873	0.2	0	0	0	176.158160515013	176.25816731737	0.100006802356802	0.200029452214949
34103.5	100	346	2	66	1	1	90	2	2	0	1	22.5	157.5	0.0382798836187086	0.184008432858141	0.2	0	0	0	176.458169219084	176.558157491847	0.0999882727628574	0.200001901714131
34178.5	100	347	2	67	1	1	90	2	2	0	2	67.5	112.5	-0.0399937688264989	2.44530271425047	0.2	0	0	0	176.758174997289	176.858157906216	0.0999829089269042	0.200017505441792
34253.5	100	348	2	68	1	1	90	2	2	0	1	112.5	157.5	1.00828926861602	0.889910211045656	0.2	0	0	0	177.058188089868	177.158172217896	0.0999841280281544	0.200030183652416
34328.5	100	349	2	69	1	1	90	2	2	0	1	112.5	157.5	-0.422941937202153	-0.906317934921102	0.2	0	0	0	177.358204108197	177.458178971428	0.0999748632311821	0.200031890301034
34403.5	100	350	2	70	1	1	90	2	2	0	2	157.5	22.5	2.24968411003266	-0.390612510616214	0.2	0	0	0	177.658204278909	177.758192551672	0.0999882727628574	0.200025307480246
34478.5	100	351	2	71	1	1	90	2	2	0	1	22.5	157.5	-1.58289810727378	-1.01242765244256	0.2	0	0	0	177.958223222871	178.058195404243	0.0999721813714132	0.200030671199784
34553.5	100	352	2	72	1	1	90	2	2	0	1	22.5	157.5	2.83700830845012	-1.14056312674635	0.2	0	0	0	178.258220711607	178.358211178682	0.0999904670752585	0.200025307363831
34628.5	100	353	2	73	1	1	90	2	2	0	1	112.5	157.5	-1.50893947179152	-0.740087637731519	0.2	0	0	0	178.558210398536	178.658209642628	0.0999992440920323	0.199999219854362
34703.5	100	354	2	74	1	1	90	2	2	0	1	112.5	67.5	-0.60269011802143	0.966133120049813	0.2	0	0	0	178.858234950108	178.958212982863	0.0999780327547342	0.200025307480246
34778.5	100	355	2	75	1	1	90	2	2	0	2	67.5	22.5	-0.714604538396923	-1.31922220975286	0.2	0	0	0	179.1582443855	179.25822119927	0.0999768137698993	0.200031402637251
34853.5	100	356	2	76	1	1	90	2	2	0	2	67.5	22.5	1.89921776384498	-1.70125712260361	0.2	0	0	0	179.458244312438	179.558226246154	0.0999819337157533	0.200023113167845
34928.5	100	357	2	77	1	1	90	2	2	0	2	157.5	112.5	-1.70378586148428	1.41805042584551	0.2	0	0	0	179.758256917354	179.85823592532	0.0999790079658851	0.200030671199784
35003.5	100	358	2	78	1	1	90	2	2	0	2	157.5	22.5	2.52735626221397	0.383439177718251	0.2	0	0	0	180.058260989026	180.158242191304	0.0999812022782862	0.200025063706562
35078.5	100	359	2	79	1	1	90	2	2	0	1	22.5	67.5	2.29530985768276	3.07810811469618	0.2	0	0	0	180.358282858739	180.458265036228	0.0999821774894372	0.200040667434223
35153.5	100	360	2	80	1	1	90	2	2	0	1	112.5	157.5	-2.00516232610564	-0.431231140372951	0.2	0	0	0	180.65828839317	180.758270326885	0.0999819337157533	0.200023356941529
35228.5	100	361	2	81	1	1	90	2	2	0	1	112.5	67.5	2.31097902078591	2.54489929996986	0.2	0	0	0	180.958293927601	181.058259282261	0.0999653546605259	0.200023600715213
35303.5	100	362	2	82	1	1	90	2	2	0	2	157.5	112.5	0.816926964722137	1.54200026772534	0.2	0	0	0	181.258305801195	181.358287491137	0.0999816899420694	0.200046518933959
35378.5	100	363	2	83	1	1	90	2	2	0	2	67.5	22.5	-0.977011123062932	0.547223970986052	0.2	0	0	0	181.558310848079	181.658298633178	0.0999877850990742	0.200023356941529
35453.5	100	364	2	84	1	1	90	2	2	0	2	67.5	112.5	-2.9796940414489	-1.96893015379945	0.2	0	0	0	181.858318820596	181.958287101006	0.0999682804103941	0.200020187417977
35528.5	100	365	2	85	1	1	90	2	2	3	1	22.5	157.5	2.35810061797005	2.24315408707382	0.2	0	0	0	182.15833069419	182.258309214492	0.099978520302102	0.200043593184091
35603.5	100	366	2	86	1	1	90	2	2	3	1	112.5	67.5	-0.0368908119742866	-1.06602236720488	0.2	0	0	0	182.458339641918	182.55832425761	0.0999846156919375	0.2000304274261
35678.5	100	367	2	87	1	1	90	2	2	3	1	112.5	157.5	3.00469440708759	-0.931932419343413	0.2	0	0	0	182.758346151677	182.858335155877	0.0999890042003244	0.200021894066595
35753.5	100	368	2	88	1	1	90	2	2	2	-1	45	90	-0.249430299166418	-0.776157620645292	0.2	0	0	0	183.058354611858	183.158340202761	0.0999855909030885	0.20001945598051
35828.5	100	369	2	89	1	1	90	2	2	3	1	22.5	67.5	-2.44968667632469	0.824325668826811	0.2	0	0	0	183.358369411086	183.458349394379	0.0999799832934514	0.20002920832485
35903.5	100	370	2	90	1	1	90	2	2	3	2	67.5	112.5	0.929916763131548	1.84157740616523	0.2	0	0	0	183.658376408392	183.758353953599	0.0999775452073663	0.200027014012448
35978.5	100	371	2	91	1	1	90	2	2	3	2	67.5	22.5	2.81441029695272	-1.14401595504091	0.2	0	0	0	183.958383161924	184.05836533953	0.0999821776058525	0.20002920832485
36053.5	100	372	2	92	1	1	90	2	2	3	2	157.5	112.5	-1.66996361318721	2.53023136905659	0.2	0	0	0	184.258388940245	184.358372824499	0.0999838842544705	0.200023600715213
36128.5	100	373	2	93	1	1	90	2	2	0	2	157.5	112.5	-0.935293547613238	-2.02877904554271	0.2	0	0	0	184.558395450003	184.658379334142	0.0999838841380551	0.200022625504062
36203.5	100	374	2	94	1	1	90	2	2	0	2	157.5	22.5	-2.56786043746546	1.65954787867517	0.2	0	0	0	184.858391963528	184.95838876965	0.0999968061223626	0.200012629386038
36278.5	100	375	2	95	1	1	90	2	2	0	2	67.5	112.5	-1.0354478140316	2.60390429197864	0.2	0	0	0	185.158414808451	185.258378212689	0.099963404238224	0.200026038801298
36353.5	100	376	2	96	1	1	90	2	2	0	2	157.5	22.5	-2.90864346418004	0.78644880141622	0.2	0	0	0	185.458422781085	185.558407640434	0.0999848593492061	0.200044568395242
36428.5	100	377	2	97	1	1	90	2	2	0	1	22.5	157.5	2.15255440180222	0.197791964234518	0.2	0	0	0	185.758430753602	185.858416344505	0.0999855909030885	0.200023113167845
36503.5	100	378	2	98	1	1	90	2	2	0	1	22.5	67.5	0.150693518581372	-0.142881830304115	0.2	0	0	0	186.058440432884	186.158422122709	0.099981689825654	0.200024088378996
36578.5	100	379	2	99	1	1	90	2	2	0	2	157.5	112.5	0.722716540270694	1.28472947184172	0.2	0	0	0	186.358449868276	186.458429120132	0.0999792518559843	0.200027745566331
36653.5	100	380	2	100	1	1	90	2	2	0	1	112.5	157.5	-1.03691333245223	-0.889264990470161	0.2	0	0	0	186.658456378034	186.758430509828	0.0999741317937151	0.200027257902548
36728.5	100	381	2	101	1	1	90	2	2	0	1	112.5	67.5	0.451343660029283	0.172266675010737	0.2	0	0	0	186.958453379106	187.058436044259	0.0999826651532203	0.200022869277745
36803.5	100	382	2	102	1	1	90	2	2	0	1	22.5	157.5	-0.440825590134173	0.793500094493061	0.2	0	0	0	187.258464521263	187.358455719659	0.0999911983963102	0.200028477003798
36878.5	100	383	2	103	1	1	90	2	2	0	2	67.5	22.5	-1.18372666078787	-2.1266239395154	0.2	0	0	0	187.558472006232	187.658452477073	0.0999804708408192	0.200016286573373
36953.5	100	384	2	104	1	1	90	2	2	0	1	112.5	67.5	-0.359565661739297	-1.86415679666573	0.2	0	0	0	187.858480222523	187.958461912465	0.0999816899420694	0.200027745449916
37028.5	100	385	2	105	1	1	90	2	2	0	1	112.5	157.5	-1.61272133581372	-2.06273317734796	0.2	0	0	0	188.158486244734	188.258473054622	0.0999868098879233	0.200024332269095
37103.5	100	386	2	106	1	1	90	2	2	0	1	112.5	157.5	1.57006076614186	1.56609636369098	0.2	0	0	0	188.458492510603	188.558477857616	0.0999853470129892	0.20001945598051
37178.5	100	387	2	107	1	1	90	2	2	0	1	22.5	67.5	-2.96754173119156	0.921995875620076	0.2	0	0	0	188.758508772706	188.85848680546	0.0999780327547342	0.200030915089883
37253.5	100	388	2	108	1	1	90	2	2	0	2	157.5	22.5	0.00789682031045214	-0.466574596080798	0.2	0	0	0	189.058515770012	189.158493315103	0.099977545090951	0.200028964551166
37328.5	100	389	2	109	1	1	90	2	2	0	2	157.5	112.5	-2.38498915183884	-0.937124877992699	0.2	0	0	0	189.358520816895	189.458502506721	0.099981689825654	0.200027501792647
37403.5	100	390	2	110	1	1	90	2	2	0	1	22.5	67.5	-1.50945656848383	1.75982107352714	0.2	0	0	0	189.658532202826	189.75851291744	0.0999807146145031	0.200029696105048
37478.5	100	391	2	111	1	1	90	2	2	0	1	112.5	67.5	0.41154161095374	0.202466835796584	0.2	0	0	0	189.958537005819	190.058521377621	0.0999843718018383	0.200024088378996
37553.5	100	392	2	112	1	1	90	2	2	0	1	22.5	67.5	-1.10198732279996	-2.98850160651797	0.2	0	0	0	190.258545953664	190.358529594028	0.0999836403643712	0.200024576042779
37628.5	100	393	2	113	1	1	90	2	2	0	2	67.5	22.5	0.0910044430711672	-1.57840677045702	0.2	0	0	0	190.558553682407	190.658540979959	0.0999872975517064	0.200024088378996
37703.5	100	394	2	114	1	1	90	2	2	0	2	67.5	22.5	-2.00358506484983	-1.80028314319056	0.2	0	0	0	190.858549708268	190.958532373421	0.0999826651532203	0.200008728308603
37778.5	100	395	2	115	1	1	90	2	2	0	1	22.5	157.5	-1.2967868204974	-0.652138804778855	0.2	0	0	0	191.158568164683	191.258560094633	0.0999919299501926	0.200035791262053
37853.5	100	396	2	116	1	1	90	2	2	0	2	157.5	22.5	-2.63262832511276	0.0638147144309231	0.2	0	0	0	191.458586377325	191.558564897627	0.099978520302102	0.200026282691397
37928.5	100	397	2	117	1	1	90	2	2	0	2	67.5	112.5	-0.279625702074668	-1.42788620375779	0.2	0	0	0	191.758587523247	191.858568969299	0.0999814460519701	0.200022625620477
38003.5	100	398	2	118	1	1	90	2	2	3	1	112.5	157.5	-0.635392479903136	0.607236175281771	0.2	0	0	0	192.058595495764	192.15858011134	0.0999846155755222	0.200026526465081
38078.5	100	399	2	119	1	1	90	2	2	3	2	67.5	112.5	1.97058364578093	-1.01817708308007	0.2	0	0	0	192.358600542648	192.458585889661	0.0999853470129892	0.200020431308076
38153.5	100	400	2	120	1	1	90	2	2	3	1	22.5	157.5	2.91353310890617	-0.11330064582916	0.2	0	0	0	192.658615585649	192.758623119444	0.100007533794269	0.200029695988633
38228.5	100	401	2	121	1	1	90	2	2	1	-1	90	135	2.29801738911155	-1.00103088008214	0.2	0	0	0	192.958616000134	193.058600128163	0.0999841280281544	0.199992880690843
38303.5	100	402	2	122	1	1	90	2	2	3	1	22.5	67.5	1.11908352638389	0.579291291844458	0.2	0	0	0	193.258626654628	193.358610051218	0.0999833965906873	0.200026526465081
38378.5	100	403	2	123	1	1	90	2	2	3	2	157.5	22.5	1.03414314111995	-2.79725180236052	0.2	0	0	0	193.558633895824	193.658615098102	0.0999812022782862	0.200023844605312
38453.5	100	404	2	124	1	1	90	2	2	3	2	157.5	112.5	2.17649585172046	-2.26666475024236	0.2	0	0	0	193.858646256966	193.958622339182	0.0999760822160169	0.200031158863567
38528.5	100	405	2	125	1	1	90	2	2	3	1	112.5	67.5	-2.49585403318671	2.18456033264385	0.2	0	0	0	194.158651791397	194.258633968886	0.0999821774894372	0.200029452214949
38603.5	100	406	2	126	1	1	90	2	2	0	1	22.5	67.5	-0.0705820961406771	1.5259030209775	0.2	0	0	0	194.458660251577	194.558639747207	0.0999794956296682	0.200026282691397
38678.5	100	407	2	127	1	1	90	2	2	0	1	112.5	67.5	-2.61779757703099	2.81301292845205	0.2	0	0	0	194.758667248883	194.858649182599	0.0999819337157533	0.200027501676232
38753.5	100	408	2	128	1	1	90	2	2	0	2	157.5	22.5	1.0706941081401	-2.57086397821611	0.2	0	0	0	195.058675709181	195.15865764278	0.0999819335993379	0.200026526581496
38828.5	100	409	2	129	1	1	90	2	2	0	1	22.5	157.5	-2.76958784631616	-2.73229527882981	0.2	0	0	0	195.35868587601	195.458666590624	0.0999807146145031	0.200028233230114
38903.5	100	410	2	130	1	1	90	2	2	0	2	157.5	22.5	-1.39014579117402	-1.98955312634745	0.2	0	0	0	195.658691898105	195.758650426054	0.0999585279496387	0.200025307480246
38978.5	100	411	2	131	1	1	90	2	2	0	1	112.5	67.5	-1.45306225687445	-1.92114274945119	0.2	0	0	0	195.958705234458	196.058686192962	0.0999809585046023	0.200054808403365
39053.5	100	412	2	132	1	1	90	2	2	0	2	157.5	22.5	-2.03373122723951	-0.24776872842896	0.2	0	0	0	196.258715157514	196.358697822667	0.0999826651532203	0.200028964551166
39128.5	100	413	2	133	1	1	90	2	2	0	1	22.5	157.5	-0.142248835191005	1.34221757909822	0.2	0	0	0	196.558715815772	196.658713109558	0.0999972937861457	0.200017993105575
39203.5	100	414	2	134	1	1	90	2	2	0	2	67.5	22.5	1.36663928257122	0.0706563811949863	0.2	0	0	0	196.858729883679	196.95871011063	0.09998022695072	0.200016774120741
39278.5	100	415	2	135	1	1	90	2	2	0	2	157.5	22.5	-1.02169941102672	1.24526400266275	0.2	0	0	0	197.158741269493	197.258721984224	0.0999807147309184	0.200031158863567
39353.5	100	416	2	136	1	1	90	2	2	0	2	67.5	112.5	-0.284484345509973	2.26170243090171	0.2	0	0	0	197.45874290308	197.558728250093	0.0999853470129892	0.200020918855444
39428.5	100	417	2	137	1	1	90	2	2	0	1	22.5	157.5	-0.993631409708732	1.13935553527329	0.2	0	0	0	197.758757946081	197.85872110643	0.0999631603481248	0.200029695988633
39503.5	100	418	2	138	1	1	90	2	2	0	2	157.5	112.5	2.184430912905	0.356884618066424	0.2	0	0	0	198.05875860434	198.158745658118	0.0999870537780225	0.200037497910671
39578.5	100	419	2	139	1	1	90	2	2	0	1	112.5	67.5	-1.71912370467092	2.31868719492193	0.2	0	0	0	198.358773403685	198.458741440205	0.0999680365202948	0.200027745566331
39653.5	100	420	2	140	1	1	90	2	2	3	1	22.5	157.5	1.47667259162895	1.30568679910882	0.2	0	0	0	198.658785520936	198.758760384168	0.0999748632311821	0.200044080731459
39728.5	100	421	2	141	1	1	90	2	2	3	2	67.5	112.5	2.64049352899508	-0.230222379482501	0.2	0	0	0	198.958770087804	199.058769332012	0.0999992442084476	0.200009703636169
39803.5	100	422	2	142	1	1	90	2	2	3	2	157.5	112.5	-2.7780085430253	-2.69436634445023	0.2	0	0	0	199.25879537093	199.358770234161	0.0999748632311821	0.200026038917713
39878.5	100	423	2	143	1	1	90	2	2	3	1	112.5	157.5	-0.374000624005359	1.47091793853742	0.2	0	0	0	199.55879407865	199.658779913327	0.0999858346767724	0.200023844488896
41091	100	424	3	0	1	2	0	1	2	3	2	67.5	22.5	-0.841717098073169	-2.08291905723438	0.2	0	0	0	204.408940888708	204.508907706128	0.0999668174190447	-1
41166	100	425	3	1	1	2	0	1	2	3	1	112.5	157.5	1.3156888543289	2.42574884289766	0.2	0	0	0	204.708965684054	204.808932013926	0.0999663298716769	0.200057977926917
41241	100	426	3	2	1	2	0	1	2	3	2	157.5	22.5	-2.54843812355357	-2.89298083985389	0.2	0	0	0	205.008955614758	205.108940230333	0.0999846155755222	0.200023600831628
41316.25	100	427	3	3	1	2	0	1	2	3	1	22.5	67.5	-0.43405304603734	0.520488660404686	0.2	0	0	0	205.308954078704	205.4089511286	0.0999970498960465	0.200013848370872
41391.25	100	428	3	4	1	2	0	1	2	0	1	22.5	157.5	1.08179862171414	2.96269658822582	0.2	0	0	0	205.608978142729	205.7089503241	0.0999721813714132	0.200027014128864
41466	100	429	3	5	1	2	0	1	2	0	2	157.5	22.5	-1.41507166457721	-1.14999498431513	0.2	0	0	0	205.908974656253	206.00894537475	0.0999707184964791	0.20002433215268
41541.25	100	430	3	6	1	2	0	1	2	0	2	67.5	112.5	-0.796520308122596	0.143905718114455	0.2	0	0	0	206.208980922238	206.308972608298	0.0999916860600933	0.200035547488369
41616.25	100	431	3	7	1	2	0	1	2	0	1	22.5	67.5	1.63027880163063	-1.22222891736349	0.2	0	0	0	206.508994502365	206.608981556143	0.0999870537780225	0.200021894066595
41691.25	100	432	3	8	1	2	0	1	2	0	2	157.5	22.5	-1.81562274420928	-0.530784841649576	0.2	0	0	0	206.808984189294	206.908987334347	0.100003145053051	0.200002633151598
41766.25	100	433	3	9	1	2	0	1	2	0	2	157.5	22.5	2.65359719790586	-2.45791982338107	0.2	0	0	0	207.109011178953	207.208974095527	0.0999629165744409	0.200023844605312
41841.25	100	434	3	10	1	2	0	1	2	0	1	112.5	157.5	-2.25648388712647	0.738880112964909	0.2	0	0	0	207.409018420149	207.509006936685	0.0999885165365413	0.200044324621558
41916.25	100	435	3	11	1	2	0	1	2	0	2	157.5	22.5	-1.74062440622233	1.26552747085742	0.2	0	0	0	207.709024929791	207.809006132069	0.0999812022782862	0.200017993105575
41991.25	100	436	3	12	1	2	0	1	2	0	1	22.5	67.5	0.718763485789424	-2.3296453161287	0.2	0	0	0	208.009032658534	208.109015079914	0.0999824213795364	0.200026526465081
42066.25	100	437	3	13	1	2	0	1	2	0	1	112.5	67.5	-1.69601313988106	-3.0761940667721	0.2	0	0	0	208.309037461644	208.409029147704	0.0999916860600933	0.200022381730378
42141.25	100	438	3	14	1	2	0	1	2	0	1	112.5	157.5	2.13602112864563	-1.6246228819423	0.2	0	0	0	208.609057137044	208.709031268838	0.0999741317937151	0.200027989340015
42216.25	100	439	3	15	1	2	0	1	2	0	2	157.5	22.5	-0.887007929084613	-0.915322445044409	0.2	0	0	0	208.90905852674	209.009041923331	0.0999833965906873	0.200027257902548
42291.25	100	440	3	16	1	2	0	1	2	0	1	22.5	67.5	-2.34209671575401	-0.411224683350308	0.2	0	0	0	209.209064305061	209.309031610261	0.0999673051992431	0.200022381730378
42366.25	100	441	3	17	1	2	0	1	2	0	2	157.5	22.5	1.062087061639	1.33434416330996	0.2	0	0	0	209.509076178656	209.609059087583	0.0999829089269042	0.200044568395242
42441.25	100	442	3	18	1	2	0	1	2	0	2	157.5	22.5	-0.455923035200898	0.127669683928713	0.2	0	0	0	209.809068059782	209.90904901817	0.099980958388187	0.200008972198702
42516.25	100	443	3	19	1	2	0	1	2	0	2	67.5	22.5	0.778523545730028	-2.93629116193763	0.2	1	0	0	210.109092123806	210.209056259366	0.0999641355592757	0.200043105636723
42591.25	100	444	3	20	1	2	0	1	2	0	1	112.5	157.5	-2.4382733113294	-3.02204450243883	0.2	0	0	0	210.409104728722	210.509083492914	0.0999787641922012	0.200048469356261
42666.25	100	445	3	21	1	2	0	1	2	0	2	67.5	112.5	-2.80847607056311	-0.354522161707957	0.2	0	0	0	210.709109287942	210.809082200751	0.0999729128088802	0.200025795027614
42741.25	100	446	3	22	1	2	0	1	2	3	2	67.5	112.5	-1.2859522396	-2.08305692274585	0.2	0	0	0	211.00912140531	211.109103826573	0.0999824212631211	0.200039204559289
42816.25	100	447	3	23	1	2	0	1	2	3	1	22.5	67.5	0.09522488710879	1.93650271522293	0.2	0	0	0	211.309116212185	211.409107166808	0.0999909546226263	0.200012385612354
42891.25	100	448	3	24	1	2	0	1	2	3	2	157.5	22.5	-1.89079568391757	1.54550026272472	0.2	0	0	0	211.609118577093	211.709116358426	0.0999977813335136	0.200011410284787
42966.25	100	449	3	25	1	2	0	1	2	1	-1	0	135	-1.83335397135622	1.91105930643618	0.2	0	0	0	211.909140446805	212.009120917646	0.0999804708408192	0.200024088378996
43041.25	100	450	3	26	1	2	0	1	2	3	1	22.5	157.5	2.11214730052517	0.734221676392175	0.2	0	0	0	212.209132571821	212.309131815913	0.0999992440920323	0.200011654174887
43116.25	100	451	3	27	1	2	0	1	2	3	2	157.5	112.5	-1.62078986096689	-1.82555544191543	0.2	0	0	0	212.509164437652	212.609129792312	0.0999653546605259	0.200032621738501
43191.25	100	452	3	28	1	2	0	1	2	3	2	67.5	22.5	-0.961212816494192	1.83536959899737	0.2	0	0	0	212.809162414051	212.909145810641	0.0999833965906873	0.200032621738501
43266.25	100	453	3	29	1	2	0	1	2	3	1	112.5	67.5	2.33292065736262	-1.32389851297215	0.2	0	0	0	213.109174775193	213.209140861291	0.099966086097993	0.200028964551166
43341.25	100	454	3	30	1	2	0	1	2	0	1	22.5	67.5	3.12840061974525	-2.10514009708923	0.2	0	0	0	213.409184454475	213.509163218667	0.0999787641922012	0.200043593184091
43416.25	100	455	3	31	1	2	0	1	2	0	2	67.5	112.5	1.71053756238839	-2.8972163549692	0.2	0	0	0	213.709189013694	213.809176798793	0.0999877850990742	0.200025795027614
43491.25	100	456	3	32	1	2	0	1	2	0	2	157.5	112.5	-2.25861750658834	-0.688765618973496	0.2	0	0	0	214.00919625489	214.109180870466	0.0999846155755222	0.200019456096925
43566.25	100	457	3	33	1	2	0	1	2	0	1	112.5	157.5	1.6631169664391	2.85873557236836	0.2	0	0	0	214.309173995047	214.409158366849	0.0999843718018383	0.199993124580942
43641.25	100	458	3	34	1	2	0	1	2	0	1	22.5	67.5	-2.57340006920357	1.15720330639927	0.2	0	0	0	214.609190500923	214.709200228914	0.100009727990255	0.200032134074718
43716.25	100	459	3	35	1	2	0	1	2	0	2	157.5	22.5	1.88192861253119	1.00521726910004	0.2	0	0	0	214.909227730706	215.009195523453	0.0999677927466109	0.200027501792647
43791.25	100	460	3	36	1	2	0	1	2	0	2	67.5	22.5	-1.40736557454623	-0.753997514507442	0.2	0	0	0	215.209233021364	215.309219587478	0.0999865661142394	0.200037497910671
43866.25	100	461	3	37	1	2	0	1	2	0	1	22.5	67.5	-1.76402289527193	-0.401164439141632	0.2	0	0	0	215.50924684538	215.609225365683	0.099978520302102	0.200027257902548
43941.25	100	462	3	38	1	2	0	1	2	0	2	67.5	22.5	-0.464103134511355	2.57368734260568	0.2	0	0	0	215.8092514046	215.909211639198	0.0999602345982566	0.200026038917713
44016.25	100	463	3	39	1	2	0	1	2	0	1	112.5	157.5	-2.24808207677437	3.13485724903753	0.2	0	0	0	216.109259133344	216.20924204227	0.0999829089269042	0.20004749414511
44091.25	100	464	3	40	1	2	0	1	2	0	1	22.5	157.5	1.04846554334304	-1.04540667016814	0.2	0	0	0	216.409268568736	216.509251477662	0.0999829089269042	0.200026526465081
44166.25	100	465	3	41	1	2	0	1	2	0	2	67.5	112.5	2.03028052208507	0.552124831249678	0.2	0	0	0	216.709273859393	216.809256036999	0.0999821776058525	0.200022381730378
44241.25	100	466	3	42	1	2	0	1	2	0	2	157.5	112.5	1.0452827725005	-0.0821547360703141	0.2	0	0	0	217.009279150167	217.109261327656	0.0999821774894372	0.200023113167845
44316.25	100	467	3	43	1	2	0	1	2	0	2	157.5	22.5	1.86878961317698	-1.86505316610917	0.2	0	0	0	217.309290292207	217.409268812626	0.0999785204185173	0.200028964551166
44391.25	100	468	3	44	1	2	0	1	2	0	2	67.5	112.5	-2.12831420946645	0.0713728320020093	0.2	0	0	0	217.609295826638	217.709277272807	0.0999814461683854	0.200027014012448
44466.25	100	469	3	45	1	2	0	1	2	0	2	67.5	22.5	-1.42915222759657	-2.58282665359315	0.2	0	0	0	217.90930258017	218.009285976761	0.0999833965906873	0.200025307363831
44541.25	100	470	3	46	1	2	0	1	2	0	2	157.5	112.5	2.11993418958298	1.86083828676945	0.2	0	0	0	218.209297143272	218.309279808425	0.0999826651532203	0.200011166511104
44616.25	100	471	3	47	1	2	0	1	2	0	1	22.5	157.5	-1.0899687030719	-0.599223001697423	0.2	0	0	0	218.509318769211	218.609308260959	0.0999894917476922	0.200038960785605
44691.25	100	472	3	48	1	2	0	1	2	0	2	67.5	112.5	1.55157144160687	0.969553248854006	0.2	0	0	0	218.8093316179	218.90931696503	0.0999853471294045	0.200023356941529
44766.25	100	473	3	49	1	2	0	1	2	0	1	22.5	67.5	0.420236618824953	1.76104566048507	0.2	0	0	0	219.109344466706	219.209322987124	0.0999785204185173	0.200027501676232
44841.25	100	474	3	50	1	2	0	1	2	0	1	22.5	157.5	-2.20330260301313	-1.66222952518078	0.2	0	0	0	219.409347075503	219.509327302454	0.09998022695072	0.200024088378996
44916.25	100	475	3	51	1	2	0	1	2	0	1	112.5	67.5	-1.75092492631142	2.81286442043792	0.2	0	0	0	219.70933700609	219.809338444611	0.100001438520849	0.200009703636169
44991.25	100	476	3	52	1	2	0	1	2	0	2	67.5	112.5	2.65953298738855	3.05956428320652	0.2	0	0	0	220.00935985113	220.109348123893	0.0999882727628574	0.200021406519227
45066.25	100	477	3	53	1	2	0	1	2	0	2	67.5	22.5	2.52540021950327	-0.0922168847809894	0.2	0	0	0	220.309371724608	220.40933829837	0.0999665737617761	0.200023600715213
45141.25	100	478	3	54	1	2	0	1	2	0	1	112.5	157.5	0.602941922121312	-2.68779130825841	0.2	0	0	0	220.60938140389	220.709342369926	0.0999609660357237	0.200043105520308
45216.25	100	479	3	55	1	2	0	1	2	0	1	22.5	67.5	-3.041406436721	0.87655623656986	0.2	0	0	0	220.909386206884	221.009373260662	0.0999870537780225	0.200043836957775
45291.25	100	480	3	56	1	2	0	1	2	0	2	157.5	22.5	-3.03616715046148	1.12162553605508	0.2	0	0	0	221.209383451845	221.309380501742	0.0999970498960465	0.200010191183537
45366.25	100	481	3	57	1	2	0	1	2	0	2	67.5	22.5	2.75039149877526	-1.77079594161442	0.2	0	0	0	221.50940093305	221.609385792399	0.0999848593492061	0.200020431308076
45441.25	100	482	3	58	1	2	0	1	2	0	1	112.5	67.5	1.8765092777766	1.7464544948441	0.2	0	0	0	221.809414269403	221.909396934556	0.0999826651532203	0.200028477003798
45516.25	100	483	3	59	1	2	0	1	2	0	1	112.5	157.5	1.24325220837435	-1.37027112468197	0.2	0	0	0	222.109419803834	222.209382232861	0.0999624290270731	0.200022869277745
45591.25	100	484	3	60	1	2	0	1	2	0	2	67.5	112.5	-1.51069714090009	-1.50752215747467	0.2	0	0	0	222.409426069818	222.509411173058	0.0999851032393053	0.200043836957775
45666.25	100	485	3	61	1	2	0	1	2	0	2	157.5	112.5	2.56783741082088	-2.6056356837986	0.2	0	0	0	222.709437943297	222.809405248496	0.0999673051992431	0.200026770238765
45741.25	100	486	3	62	1	2	0	1	2	0	2	67.5	112.5	-2.68251555174019	0.747558780912787	0.2	0	0	0	223.009447134915	223.109433944803	0.0999868098879233	0.200041886419058
45816.25	100	487	3	63	1	2	0	1	2	3	2	157.5	22.5	1.18143440087481	1.60849366351393	0.2	0	0	0	223.30945315701	223.409437041264	0.0999838842544705	0.200019212206826
45891.25	100	488	3	64	1	2	0	1	2	3	2	157.5	112.5	1.18245140358784	1.22084410622944	0.2	0	0	0	223.609468443901	223.70944696432	0.0999785204185173	0.200031402637251
45966.25	100	489	3	65	1	2	0	1	2	3	2	67.5	22.5	-0.814835129596995	-1.22223542160534	0.2	0	0	0	223.909476172645	224.009438601555	0.0999624289106578	0.20002920832485
46041.25	100	490	3	66	1	2	0	1	2	2	-1	45	0	1.96482662959699	-1.27359280211642	0.2	0	0	0	224.209463909036	224.309464128455	0.100000219419599	0.200025307480246
46116.25	100	491	3	67	1	2	0	1	2	3	1	22.5	157.5	-1.95056007123588	-2.80280364901998	0.2	0	0	0	224.509486753959	224.609477221034	0.0999904670752585	0.200022625504062
46191.25	100	492	3	68	1	2	0	1	2	3	1	112.5	157.5	2.90422920981725	-2.03861979485956	0.2	0	0	0	224.809501797077	224.909480805043	0.0999790079658851	0.200024576042779
46266.25	100	493	3	69	1	2	0	1	2	3	1	22.5	67.5	2.71996615244364	-1.54301902118816	0.2	0	0	0	225.109506843961	225.209481463302	0.0999746193410829	0.200026038917713
46341.25	100	494	3	70	1	2	0	1	2	3	1	112.5	67.5	-1.01124478723049	-1.8296690142873	0.2	0	0	0	225.409503601259	225.509488704498	0.0999851032393053	0.200022137956694
46416.25	100	495	3	71	1	2	0	1	2	0	1	112.5	67.5	-1.06952537851902	-2.87678829912384	0.2	0	0	0	225.709514987189	225.809499358991	0.0999843718018383	0.200026282691397
46491.25	100	496	3	72	1	2	0	1	2	0	1	22.5	157.5	1.85285514403032	-0.633033089646295	0.2	0	0	0	226.009525885456	226.109530249611	0.100004364154302	0.200026526465081
46566.25	100	497	3	73	1	2	0	1	2	0	1	112.5	157.5	-0.98609727570821	-3.07917494503461	0.2	0	0	0	226.309515816043	226.409516523127	0.100000707083382	0.199985566432588
46641.25	100	498	3	74	1	2	0	1	2	0	1	112.5	157.5	0.556281682004747	0.020585916239015	0.2	0	0	0	226.609549876302	226.709513524314	0.0999636480119079	0.200033353175968
46716.25	100	499	3	75	1	2	0	1	2	0	2	67.5	112.5	1.20080876773974	-3.1244189444019	0.2	0	0	0	226.909552728874	227.009535150253	0.0999824213795364	0.200039204559289
46791.25	100	500	3	76	1	2	0	1	2	0	1	22.5	157.5	2.79753507851685	-0.743517120139138	0.2	0	0	0	227.209567040554	227.309544097981	0.0999770574271679	0.200031890301034
46866.25	100	501	3	77	1	2	0	1	2	0	1	112.5	67.5	1.59584193440363	-2.53332642492948	0.2	0	0	0	227.509573062649	227.609552070615	0.0999790079658851	0.200028964667581
46941.25	100	502	3	78	1	2	0	1	2	0	2	157.5	112.5	-1.40831936561719	-2.12404897783235	0.2	0	0	0	227.809561774251	227.909565894632	0.100004120380618	0.200009703636169
47016.25	100	503	3	79	1	2	0	1	2	0	1	112.5	67.5	-0.921991474542238	1.2366313922026	0.2	0	0	0	228.109587788698	228.209571185289	0.0999833965906873	0.200021894066595
47091.25	100	504	3	80	1	2	0	1	2	0	1	22.5	67.5	-2.67012018820107	-2.68528925618349	0.2	0	0	0	228.409601368941	228.50957671972	0.0999753507785499	0.200030183652416
47166.25	100	505	3	81	1	2	0	1	2	0	1	22.5	157.5	1.9121165048126	1.7619805591082	0.2	0	0	0	228.709607878583	228.809593469487	0.0999855909030885	0.200031158863567
47241.25	100	506	3	82	1	2	0	1	2	0	2	67.5	22.5	2.16577725476852	1.13366613280144	0.2	0	0	0	229.009610243607	229.109594859183	0.0999846155755222	0.200016774120741
47316.25	100	507	3	83	1	2	0	1	2	0	1	112.5	67.5	-1.74021536625129	0.884783217752596	0.2	0	0	0	229.309577987529	229.409601612715	0.100023625185713	0.199983128346503
47391.25	100	508	3	84	1	2	0	1	2	0	2	67.5	22.5	-0.175847580482619	0.193374858055795	0.2	0	0	0	229.609626920195	229.709608610021	0.099981689825654	0.200025307480246
47466.25	100	509	3	85	1	2	0	1	2	0	2	67.5	22.5	-0.966771693766125	1.39596324570452	0.2	0	0	0	229.9096326984	230.009596102638	0.099963404238224	0.200024088378996
47541.25	100	510	3	86	1	2	0	1	2	0	1	112.5	67.5	-1.36460592482431	-1.75732175613106	0.2	0	0	0	230.209620678565	230.309627968469	0.10000728990417	0.200024575926363
47616.25	100	511	3	87	1	2	0	1	2	0	1	22.5	67.5	-2.95773460244493	-0.589722375574829	0.2	0	0	0	230.509646693128	230.60963667254	0.0999899794114754	0.200018724659458
47691.25	100	512	3	88	1	2	0	1	2	0	1	112.5	67.5	0.59510985641077	-3.0293367151497	0.2	0	0	0	230.809654909535	230.909643913619	0.0999890040839091	0.200018236995675
47766.25	100	513	3	89	1	2	0	1	2	0	2	67.5	112.5	2.8304864375817	-3.11502224468206	0.2	0	0	0	231.109665563912	231.209633600549	0.0999680366367102	0.200021650292911
47841.25	100	514	3	90	1	2	0	1	2	3	2	67.5	22.5	-2.06685557410378	-0.529696104337682	0.2	0	0	0	231.409674024209	231.509656689246	0.099982665036805	0.200040423660539
47916.25	100	515	3	91	1	2	0	1	2	3	1	22.5	67.5	1.5971418768892	0.73438542809572	0.2	0	0	0	231.709678339539	231.809646863723	0.099968524184078	0.200021650292911
47991.25	100	516	3	92	1	2	0	1	2	3	1	112.5	157.5	1.71543388480462	2.92471758901595	0.2	0	0	0	232.009688750259	232.109672146849	0.0999833965906873	0.200041886535473
48066.25	100	517	3	93	1	2	0	1	2	2	-1	135	0	0.222840503313999	2.12940914588927	0.2	0	0	0	232.309696722776	232.409676706069	0.0999799832934514	0.200024575926363
48141.25	100	518	3	94	1	2	0	1	2	3	2	157.5	112.5	2.18688746022553	-2.80618609059718	0.2	0	0	0	232.609704207745	232.709686872899	0.0999826651532203	0.200027501676232
48216.25	100	519	3	95	1	2	0	1	2	3	1	112.5	67.5	-0.481892218663431	2.62248180385923	0.2	0	0	0	232.909712180379	233.009679241688	0.0999670613091439	0.200025307480246
48291.25	100	520	3	96	1	2	0	1	2	3	2	67.5	112.5	0.761416840121382	-0.654711705070341	0.2	0	0	0	233.209718933911	233.309706962784	0.0999880288727582	0.200039692223072
48366.25	100	521	3	97	1	2	0	1	2	3	1	22.5	157.5	-2.71421747942918	-0.537840769605543	0.2	0	0	0	233.509725443553	233.60971152212	0.0999860785668716	0.200018480769359
48441.25	100	522	3	98	1	2	0	1	2	0	1	112.5	157.5	-2.18202734091688	-2.14143843345328	0.2	0	0	0	233.809723419952	233.909691212699	0.0999677927466109	0.200011897832155
48516.25	100	523	3	99	1	2	0	1	2	0	2	67.5	22.5	0.546837196095848	-2.56620512935431	0.2	0	0	0	234.109750409727	234.209714545286	0.0999641355592757	0.200059197028168
48591.25	100	524	3	100	1	2	0	1	2	0	1	112.5	67.5	2.15024202328698	-0.302006515098602	0.2	0	0	0	234.409751799423	234.509734220803	0.0999824213795364	0.200037254136987
48666.25	100	525	3	101	1	2	0	1	2	0	2	67.5	112.5	-0.162440145118238	0.2790271324729	0.2	0	0	0	234.709732221556	234.80974511907	0.100012897513807	0.199998000753112
48741.25	100	526	3	102	1	2	0	1	2	0	1	22.5	157.5	2.72434456099396	2.21278955405537	0.2	0	0	0	235.00977018266	235.109751872602	0.0999816899420694	0.200025063590147
48816.25	100	527	3	103	1	2	0	1	2	0	2	157.5	112.5	-0.0392528260207734	1.03422696451095	0.2	0	0	0	235.309767915285	235.409744972712	0.0999770574271679	0.200016042683274
48891.25	100	528	3	104	1	2	0	1	2	0	1	112.5	67.5	-0.564610310729558	-1.93642540818048	0.2	0	0	0	235.609785396373	235.709774644347	0.0999892479740083	0.200040423660539
48966.25	100	529	3	105	1	2	0	1	2	0	1	112.5	157.5	1.78204008923607	0.602123564334641	0.2	0	0	0	235.909796782304	236.009772133199	0.0999753508949652	0.200022137956694
49041.25	100	530	3	106	1	2	0	1	2	0	2	157.5	22.5	2.64299525712043	2.01556332608242	0.2	0	0	0	236.209795977687	236.309779130504	0.0999831528170034	0.200023844488896
49116.25	100	531	3	107	1	2	0	1	2	0	1	112.5	157.5	2.51948960601826	-1.58708880232305	0.2	0	0	0	236.509805169306	236.609794417396	0.0999892480904236	0.200026038801298
49191.25	100	532	3	108	1	2	0	1	2	0	2	157.5	112.5	1.00223958157033	-1.30400685351565	0.2	0	0	0	236.809816555236	236.90979653853	0.0999799832934514	0.200022137840278
49266.25	100	533	3	109	1	2	0	1	2	0	2	67.5	112.5	-1.79102501362676	-1.52192274327556	0.2	0	0	0	237.10981867637	237.209800366312	0.0999816899420694	0.200022137840278
49341.25	100	534	3	110	1	2	0	1	2	0	2	67.5	22.5	-1.20134219561591	2.96657740709684	0.2	0	0	0	237.409840789973	237.509821748361	0.099980958388187	0.200040423660539
49416.25	100	535	3	111	1	2	0	1	2	0	2	157.5	22.5	0.361355688685029	-2.21717267298615	0.2	0	0	0	237.709828770137	237.809818018111	0.0999892479740083	0.200007021776401
49491.25	100	536	3	112	1	2	0	1	2	0	1	22.5	157.5	-2.91424194241329	0.832212818346191	0.2	0	0	0	238.009858929319	238.109836962074	0.0999780327547342	0.200040911207907
49566.25	100	537	3	113	1	2	0	1	2	0	2	157.5	112.5	-1.26419031144497	-0.869126906703163	0.2	0	0	0	238.309859587695	238.40984420327	0.0999846155755222	0.200022625620477
49641.25	100	538	3	114	1	2	0	1	2	0	1	22.5	157.5	1.80934050431318	1.41267596134473	0.2	0	0	0	238.609869754524	238.709838278708	0.099968524184078	0.20002555125393
49716.25	100	539	3	115	1	2	0	1	2	0	1	22.5	67.5	-1.56389463867267	0.00175848094083841	0.2	0	0	0	238.909881628002	239.00986575603	0.0999841280281544	0.200043349293992
49791.25	100	540	3	116	1	2	0	1	2	0	2	67.5	22.5	0.93112631550891	-1.7661065276501	0.2	0	0	0	239.209890575847	239.309873972437	0.0999833965906873	0.200024819816463
49866.25	100	541	3	117	1	2	0	1	2	0	1	22.5	157.5	-1.23228511287103	2.25996065811566	0.2	0	0	0	239.509893428418	239.609872924048	0.0999794956296682	0.20001945598051
49941.25	100	542	3	118	1	2	0	1	2	0	2	67.5	22.5	-2.30361695992697	0.233098869808304	0.2	0	0	0	239.809899694286	239.909882847103	0.0999831528170034	0.200026770238765
50016.25	100	543	3	119	1	2	0	1	2	0	2	157.5	112.5	-1.04641989415345	-3.00360675122993	0.2	0	0	0	240.10990766692	240.209893989144	0.0999863222241402	0.200024819816463
50091.25	100	544	3	120	1	2	0	1	2	0	1	112.5	67.5	-1.12360622853976	-1.76815566612757	0.2	0	0	0	240.409914907999	240.509902449441	0.0999875414418057	0.200020918855444
50166.25	100	545	3	121	1	2	0	1	2	0	2	157.5	112.5	-1.39553934761323	-2.08146007881638	0.2	0	0	0	240.70992653782	240.809907740098	0.0999812022782862	0.200024088378996
50241.25	100	546	3	122	1	2	0	1	2	0	2	157.5	112.5	-1.19008013570647	-1.11797397011856	0.2	0	0	0	241.009937923634	241.10992010124	0.0999821776058525	0.200030183536001
50316.25	100	547	3	123	1	2	0	1	2	0	1	22.5	157.5	2.63015714196494	-2.11867096066936	0.2	0	0	0	241.309943945729	241.409923441359	0.0999794956296682	0.200023844488896
50391.25	100	548	3	124	1	2	0	1	2	0	2	157.5	22.5	0.469688705526242	0.912578130193094	0.2	0	0	0	241.609953868785	241.709936290164	0.0999824213795364	0.2000304274261
50466.25	100	549	3	125	1	2	0	1	2	0	2	157.5	112.5	-0.0174874980609223	0.681677656342943	0.2	0	0	0	241.909955989919	242.009940605611	0.0999846156919375	0.200019699754193
50541.25	100	550	3	126	1	2	0	1	2	0	1	22.5	67.5	-1.48170999183083	-0.704447567524453	0.2	0	0	0	242.209967619739	242.309936631471	0.0999690117314458	0.200027014128864
50616.25	100	551	3	127	1	2	0	1	2	0	1	112.5	157.5	-1.32083950990421	-1.52357673863524	0.2	0	0	0	242.509973641834	242.60995825741	0.0999846155755222	0.200037010363303
50691.25	100	552	3	128	1	2	0	1	2	0	1	112.5	67.5	1.88066975694075	0.84960426913471	0.2	0	0	0	242.809986002976	242.909971593763	0.0999855907866731	0.200027745566331
50766.25	100	553	3	129	1	2	0	1	2	0	1	22.5	67.5	-1.0428864459594	-0.782151513199769	0.2	0	0	0	243.109983004048	243.209969326388	0.0999863223405555	0.200011410284787
50841.25	100	554	3	130	1	2	0	1	2	0	1	22.5	157.5	-2.20515878961836	1.68375200171745	0.2	0	0	0	243.410008043284	243.509986319928	0.0999782766448334	0.200038716895506
50916.25	100	555	3	131	1	2	0	1	2	0	2	157.5	112.5	-0.708339275107089	2.28677737265792	0.2	0	0	0	243.710011383519	243.809993073461	0.0999816899420694	0.200025063590147
50991.25	100	556	3	132	1	2	0	1	2	3	1	22.5	157.5	1.08920633733769	1.37972534533848	0.2	0	0	0	244.010026914184	244.110004215501	0.0999773013172671	0.200033840723336
51066.25	100	557	3	133	1	2	0	1	2	3	2	67.5	112.5	2.7692281639652	2.75909904928836	0.2	0	0	0	244.310031473404	244.410013163346	0.0999816899420694	0.200027257902548
51141.25	100	558	3	134	1	2	0	1	2	3	2	157.5	112.5	2.09212667689313	-1.24810595278723	0.2	0	0	0	244.610039933585	244.710019673104	0.0999797395197675	0.200026770238765
51216.25	100	559	3	135	1	2	0	1	2	3	1	112.5	67.5	-0.0321441853740607	2.20624512334668	0.2	0	0	0	244.910045224242	245.010026914184	0.0999816899420694	0.200025551137514
53454	100	560	4	0	2	2	90	2	2	3	1	22.5	157.5	-1.5671362773673	1.70659424716832	0.216666666666667	0	0	0	253.860291728051	253.960269516916	0.0999777888646349	-1
53541.5	100	561	4	1	2	2	90	2	2	3	2	157.5	22.5	-3.12152970935338	-1.14585980871683	0.25	0	0	0	254.210312854149	254.31027796492	0.0999651107704267	0.250043337233365
53599.75	100	562	4	2	2	2	90	2	2	3	1	112.5	67.5	-2.24045416099795	0.360631962793647	0.133333333333333	0	0	0	254.443633777555	254.5436003512	0.0999665736453608	0.133355812635273
53666.5	100	563	4	3	2	2	90	2	2	3	2	67.5	22.5	-1.52513632630169	2.34015688250805	0.166666666666667	0	0	0	254.710285669309	254.810301004909	0.100015335599892	0.166685318108648
53762.25	100	564	4	4	2	2	90	2	2	0	1	22.5	67.5	0.796836497273471	0.17863277215564	0.283333333333333	0	0	0	255.093657024787	255.19364529755	0.0999882727628574	0.283356019877829
53829	100	565	4	5	2	2	90	2	2	0	2	157.5	112.5	-3.10213814819388	0.151034791510964	0.166666666666667	0	0	0	255.360332078533	255.460313036921	0.099980958388187	0.166686780983582
53899.75	100	566	4	6	2	2	90	2	2	0	1	22.5	157.5	2.69719966345595	1.25106674398001	0.183333333333333	0	0	0	255.643674932537	255.743658573017	0.0999836404807866	0.183361895615235
53987.25	100	567	4	7	2	2	90	2	2	0	1	112.5	157.5	0.931110563840168	2.64896366172476	0.25	0	0	0	255.993687037728	256.093664826709	0.0999777889810503	0.25002846471034
54087.25	100	568	4	8	2	2	90	2	2	0	1	22.5	67.5	2.24639363870934	-1.50473230279055	0.3	0	0	0	256.393689378281	256.493674725411	0.0999853471294045	0.300024551572278
54145.5	100	569	4	9	2	2	90	2	2	0	2	67.5	22.5	-1.35378503552784	2.98049028087429	0.133333333333333	0	0	0	256.627011764562	256.72701686027	0.100005095708184	0.133337039151229
54204	100	570	4	10	2	2	90	2	2	0	2	157.5	112.5	0.147507258936177	1.51109112999878	0.133333333333333	0	0	0	256.860374623328	256.960357288364	0.099982665036805	0.133357763057575
54279	100	571	4	11	2	2	90	2	2	0	2	67.5	112.5	2.60102217019258	-0.670934483885331	0.2	0	0	0	257.16037820722	257.260366723873	0.0999885166529566	0.200020918855444
54333	100	572	4	12	2	2	90	2	2	0	1	112.5	67.5	-2.45188287339716	-2.0702904594952	0.116666666666667	0	0	0	257.377057661768	257.47703935171	0.0999816899420694	0.116690937895328
54424.75	100	573	4	13	2	2	90	2	2	0	2	157.5	112.5	-2.65159521328283	-1.51063551311996	0.266666666666667	0	0	0	257.743745613028	257.843713405775	0.0999677927466109	0.266706261318177
54474.75	100	574	4	14	2	2	90	2	2	0	1	22.5	67.5	-2.20141696845647	-0.585857957764889	0.1	0	0	0	257.943733861321	258.043700191309	0.0999663299880922	0.100020455545746
54545.5	100	575	4	15	2	2	90	2	2	0	2	157.5	112.5	-1.86614539870202	1.29629177920797	0.183333333333333	0	0	0	258.227075252566	258.327036462491	0.0999612099258229	0.183375061256811
54629	100	576	4	16	2	2	90	2	2	0	2	157.5	22.5	-2.02201901845936	-0.603133976385045	0.233333333333333	0	0	0	258.560400540242	258.660403929185	0.100003388943151	0.233364077750593
54704	100	577	4	17	2	2	90	2	2	3	2	67.5	22.5	-2.94538526457148	-2.80438172751485	0.2	0	0	0	258.860416070907	258.960391665576	0.0999755946686491	0.200012141722254
54783	100	578	4	18	2	2	90	2	2	3	1	22.5	157.5	-2.15600081391227	-2.62873261766345	0.216666666666667	0	0	0	259.177102815243	259.277083042311	0.0999802270671353	0.21671114966739
54854	100	579	4	19	2	2	90	2	2	3	2	157.5	112.5	-0.377109667129078	2.76042640179179	0.183333333333333	0	0	0	259.46044274373	259.560425652657	0.0999829089269042	0.183359701419249
54954	100	580	4	20	2	2	90	2	2	2	-1	135	90	-1.1271303003126	-2.64197583084858	0.3	0	0	0	259.860455568065	259.960430187522	0.0999746194574982	0.300029915408231
55037.25	100	581	4	21	2	2	90	2	2	3	1	112.5	67.5	-0.33514308053114	2.53099650407383	0.233333333333333	0	0	0	260.193792802398	260.293757181731	0.0999643793329597	0.233362614875659
55133	100	582	4	22	2	2	90	2	2	3	2	157.5	22.5	0.0124197933204329	2.60027562524802	0.283333333333333	0	0	0	260.577139533008	260.677115615341	0.0999760823324323	0.283382351277396
55195.5	100	583	4	23	2	2	90	2	2	3	1	22.5	67.5	1.30274532220978	0.696444490025097	0.15	0	0	0	260.827145079733	260.92712213716	0.0999770574271679	0.150029464391991
55283	100	584	4	24	2	2	90	2	2	3	2	67.5	112.5	0.49408525586618	1.00199195452771	0.25	0	0	0	261.177147432463	261.277117175632	0.0999697431689128	0.250025295303203
55337.25	100	585	4	25	2	2	90	2	2	0	2	157.5	22.5	2.95841094573466	2.22170847065265	0.116666666666667	0	0	0	261.393825911684	261.493790778681	0.0999648669967428	0.116708736051805
55391.5	100	586	4	26	2	2	90	2	2	0	1	22.5	157.5	2.79477381365349	2.11062800134904	0.116666666666667	0	0	0	261.610498051858	261.710479498026	0.0999814461683854	0.116707273176871
55474.75	100	587	4	27	2	2	90	2	2	0	2	157.5	112.5	2.50550288744229	1.3382352643844	0.233333333333333	0	0	0	261.943838943378	262.043825265602	0.0999863222241402	0.233359445352107
55566.5	100	588	4	28	2	2	90	2	2	0	1	22.5	67.5	0.137610269345018	1.59561073786763	0.266666666666667	0	0	0	262.310520555475	262.410500051104	0.0999794956296682	0.266695289872587
55633.25	100	589	4	29	2	2	90	2	2	0	2	157.5	22.5	-1.61321495365888	2.65456284697364	0.166666666666667	0	0	0	262.577189513948	262.677155112498	0.0999655985506251	0.166689462843351
55695.75	100	590	4	30	2	2	90	2	2	0	1	112.5	157.5	-0.300320512880616	-1.62373785780578	0.15	0	0	0	262.827207251103	262.927181626786	0.0999743756838143	0.150052138604224
55754	100	591	4	31	2	2	90	2	2	0	1	22.5	157.5	-0.052622346295649	-0.566244461843872	0.133333333333333	0	0	0	263.060560357408	263.160509620677	0.0999492632690817	0.133378730621189
55841.5	100	592	4	32	2	2	90	2	2	0	2	67.5	112.5	0.0877309545606533	1.58627808320039	0.25	0	0	0	263.410547837848	263.510532697197	0.0999848593492061	0.250038217171095
55895.75	100	593	4	33	2	2	90	2	2	0	2	157.5	112.5	2.76263517625047	1.15336269058529	0.116666666666667	0	0	0	263.627226317069	263.727188502206	0.0999621851369739	0.116693619871512
55979	100	594	4	34	2	2	90	2	2	0	1	112.5	157.5	1.07074683273331	-0.621498737837436	0.233333333333333	0	0	0	263.9605623323	264.060549142188	0.0999868098879233	0.233373830094934
56033.25	100	595	4	35	2	2	90	2	2	0	2	67.5	22.5	2.73976724886551	3.12463098343029	0.116666666666667	0	0	0	264.177237885771	264.277206166182	0.0999682804103941	0.116688743582927
