onset	duration	total_event_number	stream_number	event_num_per_stream	timing_predictability	target_col	target_ori	n_targets	n_distractors	is_target	ori_pair_num	att_ori	unatt_ori	gabor_phase_att	gabor_phase_unatt	blank_dur	response	rt	correct	time_stimon	time_stimoff	stim_dur	ISI_dur
15998.75	100	0	0	0	1	1	0	1	2	3	1	22.5	67.5	-1.3626070088141	2.2963063901499	0.2	0	0	0	58.1709480853751	58.2709114896134	0.099963404238224	-1
16073.75	100	1	0	1	1	1	0	1	2	3	2	67.5	22.5	-2.73456965070199	-1.32154369677787	0.2	0	0	0	58.4709611781873	58.5708994697779	0.0999382915906608	0.200049688573927
16148.75	100	2	0	2	1	1	0	1	2	3	1	112.5	67.5	-1.94249649727825	1.78141660861871	0.2	0	0	0	58.7709206324071	58.8708964711986	0.099975838791579	0.200021162629128
16223.75	100	3	0	3	1	1	0	1	2	3	2	157.5	22.5	-1.82291667165419	-1.43193750195683	0.2	0	0	0	59.0709515232593	59.1709349197336	0.099983396474272	0.200055052060634
16298.75	100	4	0	4	1	1	0	1	2	0	1	22.5	157.5	-3.05943612779771	-3.05242372508943	0.2	0	0	0	59.3709507184103	59.4709485000931	0.0999977816827595	0.200015798676759
16373.75	100	5	0	5	1	1	0	1	2	0	2	157.5	22.5	-3.14026567118586	1.25609385790907	0.2	0	0	0	59.6709472322837	59.7709567165002	0.100009484216571	0.199998732190579
16448.75	100	6	0	6	1	1	0	1	2	0	2	67.5	22.5	-1.04830718141733	1.37876514212277	0.2	0	0	0	59.9709481340833	60.0709327496588	0.0999846155755222	0.199991417583078
16523.75	100	7	0	7	1	1	0	1	2	0	2	157.5	112.5	0.671184550082124	2.34289195759254	0.2	0	0	0	60.2709592762403	60.3709431607276	0.0999838844873011	0.200026526581496
16598.75	100	8	0	8	1	1	0	1	2	0	1	22.5	67.5	-1.86377930498351	1.87745365549568	0.2	0	0	0	60.5709755383432	60.6709757577628	0.100000219419599	0.200032377615571
16673.75	100	9	0	9	1	1	0	1	2	0	2	67.5	22.5	-1.4496164836477	-2.1638091082369	0.2	0	0	0	60.8710100864992	60.9709808048792	0.0999707183800638	0.200034328736365
16748.75	100	10	0	10	1	1	0	1	2	0	2	67.5	22.5	0.880989538600845	0.58366110352066	0.2	0	0	0	61.1710112323053	61.2709960914217	0.0999848591163754	0.2000304274261
16823.75	100	11	0	11	1	1	0	1	2	0	2	157.5	112.5	-0.714803980624009	-1.73505731301496	0.2	0	0	0	61.4710194487125	61.5710021136329	0.0999826649203897	0.200023357290775
16898.75	100	12	0	12	1	1	0	1	2	0	2	67.5	22.5	-2.77930699988248	-1.03070436736958	0.2	0	0	0	61.7710271771066	61.8710013092496	0.099974132142961	0.200025063473731
16973.75	100	13	0	13	1	1	0	1	2	0	2	157.5	112.5	1.04381110055701	0.450084642403789	0.2	0	0	0	62.071032224223	62.1710178148933	0.0999855906702578	0.200030914973468
17048.75	100	14	0	14	1	1	0	1	2	0	1	22.5	157.5	0.223268436229179	-2.46218823038105	0.2	0	0	0	62.3710409281775	62.4717342983931	0.100693370215595	0.20002311328426
17123.75	100	15	0	15	1	1	0	1	2	0	2	67.5	22.5	2.8396014316053	2.96375854508623	0.2	0	0	0	62.6710228133015	62.7710347352549	0.10001192195341	0.199288514908403
17198.75	100	16	0	16	1	1	0	1	2	0	2	157.5	22.5	-1.84191369115831	-1.46245088320146	0.2	0	0	0	62.9710600427352	63.0710119879805	0.099951945245266	0.200025307480246
17273.75	100	17	0	17	1	1	0	1	2	0	1	22.5	67.5	1.8150206386773	2.44106695040108	0.2	0	0	0	63.2710407087579	63.3710521436296	0.100011434871703	0.200028720777482
17348.75	100	18	0	18	1	1	0	1	2	0	2	67.5	22.5	0.804449984483116	1.86174015259962	0.2	0	0	0	63.571076719556	63.6710540209897	0.0999773014336824	0.200024575926363
17423.75	100	19	0	19	1	1	0	1	2	0	2	157.5	22.5	0.24563127942418	-3.07305527782046	0.2	0	0	0	63.8710586042143	63.9710641875863	0.100005583371967	0.200004583224654
17498.75	100	20	0	20	1	1	0	1	2	0	1	22.5	67.5	2.05270029734671	2.97279349615761	0.2	0	0	0	64.171078523621	64.2710516802035	0.0999731565825641	0.200014336034656
17573.75	100	21	0	21	1	1	0	1	2	0	1	22.5	157.5	1.4123494130702	-0.794080387079863	0.2	0	0	0	64.4710979554802	64.5710550202057	0.0999570647254586	0.200046275276691
17648.75	100	22	0	22	1	1	0	1	2	0	1	112.5	67.5	2.78785681102512	0.547717057435888	0.2	0	0	0	64.7711081220768	64.8710893243551	0.0999812022782862	0.200053101871163
17723.75	100	23	0	23	1	1	0	1	2	0	1	112.5	157.5	-1.45940087246025	-0.851557275823651	0.2	0	0	0	65.0711131691933	65.1710997349583	0.0999865657649934	0.200023844838142
17798.75	100	24	0	24	1	1	0	1	2	0	1	112.5	157.5	-2.96415592293677	-1.7922307155431	0.2	0	0	0	65.3711243108846	65.4711045380682	0.0999802271835506	0.200024575926363
17873.75	100	25	0	25	1	1	0	1	2	0	1	22.5	67.5	0.707447558883376	0.974566401025911	0.2	0	0	0	65.6711132666096	65.7710988572799	0.0999855906702578	0.200008728541434
17948.75	100	26	0	26	1	1	0	1	2	0	2	67.5	112.5	1.91098804900638	1.91789574782653	0.2	0	0	0	65.971151959151	66.0711251157336	0.0999731565825641	0.200053101871163
18023.75	100	27	0	27	1	1	0	1	2	0	1	22.5	67.5	2.95575558207438	0.147883698711464	0.2	0	0	0	66.2711516423151	66.371136745438	0.09998510312289	0.200026526581496
18098.75	100	28	0	28	1	1	0	1	2	0	2	157.5	22.5	-0.178901839798726	0.206564083521958	0.2	0	0	0	66.5711442548782	66.6711427676491	0.0999985127709806	0.200007509440184
18173.75	100	29	0	29	1	1	0	1	2	0	2	67.5	112.5	-0.118337323020366	-1.39254666378686	0.2	0	0	0	66.8711666120216	66.9711531782523	0.0999865662306547	0.200023844372481
18248.75	100	30	0	30	1	1	0	1	2	0	1	112.5	157.5	-2.2826009700838	1.30030202584159	0.2	0	0	0	67.1711860438809	67.271160419099	0.099974375218153	0.2000328656286
18323.75	100	31	0	31	1	1	0	1	2	0	2	157.5	112.5	-0.246743452437128	0.319475331697211	0.2	0	0	0	67.4711828008294	67.5711581520736	0.0999753512442112	0.200022381730378
18398.75	100	32	0	32	1	1	0	1	2	0	2	67.5	112.5	1.3738445742659	2.16262022149791	0.2	0	0	0	67.7711858972907	67.871164905373	0.0999790080823004	0.200027745217085
18473.75	100	33	0	33	1	1	0	1	2	0	1	22.5	67.5	-2.05607452387665	2.14692718463323	0.2	0	0	0	68.0711904563941	68.1711740968749	0.0999836404807866	0.200025551021099
18548.75	100	34	0	34	1	1	0	1	2	0	2	157.5	22.5	-1.9501581354569	-1.9157570394133	0.2	0	0	0	68.3712047683075	68.4711898714304	0.09998510312289	0.200030671432614
18623.75	100	35	0	35	1	1	0	1	2	0	2	157.5	112.5	-2.56398611342736	-2.39195380235478	0.2	0	0	0	68.6712132282555	68.7711954060942	0.0999821778386831	0.200023356825113
18698.75	100	36	0	36	1	1	0	1	2	0	1	22.5	67.5	-0.792834153503674	-0.0384878833088695	0.2	0	0	0	68.9711973075755	69.071177534759	0.0999802271835506	0.200001901481301
18773.75	100	37	0	37	1	1	0	1	2	0	1	22.5	67.5	-1.33982084931082	-3.00145820917463	0.2	0	0	0	69.2712269793265	69.3711962350644	0.0999692557379603	0.200049444567412
18848.75	100	38	0	38	1	1	0	1	2	0	2	157.5	22.5	0.964132289322483	2.41448609090624	0.2	0	0	0	69.5712371463887	69.6712276129983	0.0999904666095972	0.200040911324322
18923.75	100	39	0	39	1	1	0	1	2	0	2	157.5	112.5	0.898385948569179	1.30177637735373	0.2	0	0	0	69.8712312215939	69.9712333916686	0.100002170074731	0.20000360859558
18998.75	100	40	0	40	1	1	0	1	2	0	1	112.5	67.5	-2.53150655958891	1.17791221145534	0.2	0	0	0	70.1712577235885	70.2712399014272	0.0999821778386831	0.200024331919849
19073.75	100	41	0	41	1	1	0	1	2	3	2	157.5	22.5	-2.90239673801441	2.33002754921162	0.2	0	0	0	70.4712647208944	70.5712466547266	0.0999819338321686	0.200024819467217
19148.75	100	42	0	42	1	1	0	1	2	3	2	157.5	112.5	2.69988219348454	-1.07882117030469	0.2	0	0	0	70.7712497753091	70.871232684236	0.0999829089269042	0.200003120582551
19223.75	100	43	0	43	1	1	0	1	2	3	1	22.5	67.5	1.18650992558198	0.605443392563091	0.2	0	0	0	71.0712614050135	71.1712682074867	0.100006802473217	0.200028720777482
19298.75	100	44	0	44	1	1	0	1	2	2	-1	45	0	1.19775320516508	-0.784878444627266	0.2	0	0	0	71.3712896141224	71.4712761798874	0.0999865657649934	0.200021406635642
19373.75	100	45	0	45	1	1	0	1	2	3	1	112.5	67.5	1.38696107630901	-1.64991137614797	0.2	0	0	0	71.6713022189215	71.7712817145512	0.0999794956296682	0.200026039034128
19448.75	100	46	0	46	1	1	0	1	2	3	2	67.5	22.5	1.64126723144232	-1.8759353701337	0.2	0	0	0	71.9713082411326	72.0712867612019	0.0999785200692713	0.200026526581496
19523.75	100	47	0	47	1	1	0	1	2	3	1	22.5	157.5	-0.976667881385536	-2.13909111699823	0.2	0	0	0	72.2713074362837	72.3712908332236	0.0999833969399333	0.20002067508176
19598.75	100	48	0	48	1	1	0	1	2	3	2	67.5	112.5	0.422371340787389	1.02151825258886	0.2	0	0	0	72.5713212606497	72.6713036820292	0.0999824213795364	0.2000304274261
19673.75	100	49	0	49	1	1	0	1	2	0	2	157.5	112.5	-2.5713652477316	-2.05370537938318	0.2	0	0	0	72.8713282579556	72.9713150677271	0.099986809771508	0.200024575926363
19748.75	100	50	0	50	1	1	0	1	2	0	1	112.5	157.5	2.73048852181817	1.49990598288569	0.2	0	0	0	73.1713425694034	73.2713191392832	0.0999765698798001	0.200027501676232
19823.75	100	51	0	51	1	1	0	1	2	0	2	157.5	22.5	-0.241419351413045	-0.923258181125453	0.2	0	0	0	73.4713529800065	73.5713090701029	0.0999560900963843	0.200033840723336
19898.75	100	52	0	52	1	1	0	1	2	0	1	22.5	157.5	2.40918063553806	-2.68187515773265	0.2	0	0	0	73.7713546138257	73.8713285014965	0.0999738876707852	0.200045543722808
19973.75	100	53	0	53	1	1	0	1	2	0	2	157.5	22.5	0.465759698736011	-2.96793310580593	0.2	0	0	0	74.0713535654359	74.1713408627547	0.0999872973188758	0.200025063939393
20048.75	100	54	0	54	1	1	0	1	2	0	1	112.5	157.5	-2.18307638433179	-1.85989338689849	0.2	0	0	0	74.3713644635864	74.4713446907699	0.0999802271835506	0.200023600831628
20123.75	100	55	0	55	1	1	0	1	2	0	1	22.5	67.5	1.41828109120947	-2.23578318119482	0.2	0	0	0	74.671384382993	74.7713397410698	0.0999553580768406	0.200039692223072
20198.75	100	56	0	56	1	1	0	1	2	0	2	67.5	22.5	-2.14999495700474	3.10640129354465	0.2	0	0	0	74.9713943060488	75.0713684377261	0.0999741316772997	0.200054564978927
20273.75	100	57	0	57	1	1	0	1	2	0	1	112.5	157.5	-1.85258260459819	1.90588506879134	0.2	0	0	0	75.2713971585035	75.371366170235	0.0999690117314458	0.200028720777482
20348.75	100	58	0	58	1	1	0	1	2	0	1	22.5	157.5	-2.87377613535412	-0.54844891993243	0.2	0	0	0	75.5714041558094	75.6713860896416	0.0999819338321686	0.200037985574454
20423.75	100	59	0	59	1	1	0	1	2	0	2	67.5	112.5	-0.915251588498851	1.25635789753219	0.2	0	0	0	75.8714065207168	75.9713896736503	0.0999831529334188	0.200020431075245
20498.75	100	60	0	60	1	1	0	1	2	0	2	67.5	112.5	1.14426680175702	2.74893078570286	0.2	0	0	0	76.1713971826248	76.271367657464	0.0999704748392105	0.200007508974522
20573.75	100	61	0	61	1	1	0	1	2	0	1	112.5	157.5	-0.609145680387701	2.03571360754508	0.2	0	0	0	76.4714261228219	76.5713922092691	0.0999660864472389	0.20005846535787
20648.75	100	62	0	62	1	1	0	1	2	0	1	22.5	157.5	-1.51404553895403	-1.32494726112662	0.2	0	0	0	76.7714314134791	76.8713857969269	0.0999543834477663	0.200039204210043
20723.75	100	63	0	63	1	1	0	1	2	3	2	67.5	22.5	0.696898612736325	-0.453005932693995	0.2	0	0	0	77.0714223193936	77.1714244894683	0.100002170074731	0.200036522466689
20798.75	100	64	0	64	1	1	0	1	2	3	2	67.5	112.5	0.598203689980921	1.22927923791362	0.2	0	0	0	77.371445896104	77.4714212468825	0.0999753507785499	0.200021406635642
20873.75	100	65	0	65	1	1	0	1	2	3	1	112.5	157.5	-0.919585963015171	-1.09822740505627	0.2	0	0	0	77.6714489925653	77.7714282441884	0.0999792516231537	0.200027745682746
20948.75	100	66	0	66	1	1	0	1	2	2	-1	135	0	-0.369971637033382	2.83028431343319	0.2	0	0	0	77.9714825646952	78.0714393863454	0.0999568216502666	0.200054320506752
21023.75	100	67	0	67	1	1	0	1	2	3	2	157.5	22.5	-0.420709585072152	-1.91047254729994	0.2	0	0	0	78.2714634747244	78.3714580866508	0.0999946119263768	0.200024088378996
21098.75	100	68	0	68	1	1	0	1	2	3	1	22.5	67.5	-0.98154944057536	-1.57158136563223	0.2	0	0	0	78.571485100314	78.6714687407948	0.0999836404807866	0.200027013663203
21173.75	100	69	0	69	1	1	0	1	2	3	2	157.5	112.5	2.05112401793918	-2.98679328475022	0.2	0	0	0	78.8714955113828	78.9714728123508	0.0999773009680212	0.200026770588011
21248.75	100	70	0	70	1	1	0	1	2	3	1	112.5	67.5	-1.80583970200973	3.00592224038519	0.2	0	0	0	79.1715054344386	79.2714849300683	0.0999794956296682	0.200032622087747
21323.75	100	71	0	71	1	1	0	1	2	0	2	67.5	112.5	-0.731104736737938	-0.9419722012196	0.2	0	0	0	79.4715019478463	79.5714841252193	0.0999821773730218	0.200017017778009
21398.75	100	72	0	72	1	1	0	1	2	0	2	67.5	112.5	2.42358041911046	-0.384751059514447	0.2	0	0	0	79.7714994363487	79.8714984371327	0.0999990007840097	0.200015311129391
21473.75	100	73	0	73	1	1	0	1	2	0	1	112.5	67.5	-2.7976537974284	0.246756567433436	0.2	0	0	0	80.0715005826205	80.1714837350883	0.0999831524677575	0.200002145487815
21548.75	100	74	0	74	1	1	0	1	2	0	1	22.5	67.5	-1.81155559395609	0.0637241221538214	0.2	0	0	0	80.3715163567103	80.4715158450417	0.0999994883313775	0.200032621622086
21623.75	100	75	0	75	1	1	0	1	2	0	2	67.5	22.5	1.7166259805099	2.61503416094151	0.2	0	0	0	80.6715604132041	80.7715257680975	0.0999653548933566	0.200044568162411
21698.75	100	76	0	76	1	1	0	1	2	0	1	112.5	67.5	1.05547781824563	-2.58278231233238	0.2	0	0	0	80.9715491249226	81.0715315463021	0.0999824213795364	0.200023356825113
21773.75	100	77	0	77	1	1	0	1	2	0	2	157.5	112.5	-0.995321756263551	-2.25198361688703	0.2	0	0	0	81.2715566097759	81.3715404942632	0.0999838844873011	0.200025063473731
21848.75	100	78	0	78	1	1	0	1	2	0	1	22.5	67.5	0.104182799148327	-1.63647308448503	0.2	0	0	0	81.5715662892908	81.6715482226573	0.0999819333665073	0.200025795027614
21923.75	100	79	0	79	1	1	0	1	2	0	1	22.5	67.5	-0.59165311534519	-1.59564205841902	0.2	0	0	0	81.8715776749887	81.9715549764223	0.0999773014336824	0.200029452331364
21998.75	100	80	0	80	1	1	0	1	2	0	1	112.5	157.5	-3.00801710767269	-2.05523558438851	0.2	0	0	0	82.1715836971998	82.271547101438	0.099963404238224	0.200028720777482
22073.75	100	81	0	81	1	1	0	1	2	0	2	157.5	112.5	-2.21982068556392	-2.07317352448369	0.2	0	0	0	82.4715926451609	82.5715560489334	0.0999634037725627	0.200045543722808
22148.75	100	82	0	82	1	1	0	1	2	0	1	22.5	157.5	-1.66049623899886	-1.76419951032336	0.2	0	0	0	82.7715991544537	82.8715840140358	0.0999848595820367	0.200043105520308
22223.75	100	83	0	83	1	1	0	1	2	0	1	22.5	157.5	-1.11889085941625	-0.0911196204387954	0.2	0	0	0	83.0716090775095	83.1715702875517	0.0999612100422382	0.200025063473731
22298.75	100	84	0	84	1	1	0	1	2	0	1	112.5	67.5	-0.600536108055227	-2.91914542676321	0.2	0	0	0	83.3715941323899	83.4715787479654	0.0999846155755222	0.200023844838142
22373.75	100	85	0	85	1	1	0	1	2	0	2	157.5	22.5	-0.778287209205408	3.02342281860677	0.2	0	0	0	83.6716011296958	83.7715855012648	0.0999843715690076	0.200022381730378
22448.75	100	86	0	86	1	1	0	1	2	0	2	67.5	22.5	2.31286020705274	2.11538299912104	0.2	0	0	0	83.9716132469475	84.071614197921	0.100000950973481	0.200027745682746
22523.75	100	87	0	87	1	1	0	1	2	0	2	67.5	112.5	0.866527613832482	-1.60432859466667	0.2	0	0	0	84.2716412120499	84.3716277778149	0.0999865657649934	0.200027014128864
22598.75	100	88	0	88	1	1	0	1	2	0	1	112.5	67.5	1.56976584483971	-0.195458381670495	0.2	0	0	0	84.5716465027072	84.671616001986	0.0999694992788136	0.200018724892288
22673.75	100	89	0	89	1	1	0	1	2	0	1	112.5	67.5	0.952818812004372	2.80882558672356	0.2	0	0	0	84.8716539875604	84.9716359213926	0.0999819338321686	0.200037985574454
22748.75	100	90	0	90	1	1	0	1	2	0	2	67.5	22.5	-2.91396835180395	-0.79796134248329	0.2	0	0	0	85.1716724438593	85.2716460879892	0.0999736441299319	0.200036522466689
22823.75	100	91	0	91	1	1	0	1	2	0	1	112.5	67.5	2.49077138899299	-1.04212978869775	0.2	0	0	0	85.4716731021181	85.571656011045	0.0999829089269042	0.200027014128864
22898.75	100	92	0	92	1	1	0	1	2	3	1	22.5	157.5	-3.14141152477956	-1.31150051470412	0.2	0	0	0	85.7716679088771	85.8716605701484	0.0999926612712443	0.200011897832155
22973.75	100	93	0	93	1	1	0	1	2	3	2	157.5	22.5	1.4845306403774	0.89761175155999	0.2	0	0	0	86.071686853189	86.1716680554673	0.0999812022782862	0.200026283040643
23048.75	100	94	0	94	1	1	0	1	2	3	2	67.5	112.5	3.10154681343701	2.97892393114611	0.2	0	0	0	86.3716736142524	86.4716584733687	0.0999848591163754	0.200005558785051
23123.75	100	95	0	95	1	1	0	1	2	1	-1	0	135	1.04272005045179	-0.586436114136194	0.2	0	0	0	86.6717069428414	86.771664252039	0.0999573091976345	0.200048469472677
23198.75	100	96	0	96	1	1	0	1	2	3	1	112.5	67.5	-1.29226956943336	-3.12305063183319	0.2	0	0	0	86.9717051628977	87.0716987997293	0.0999936368316412	0.200040910858661
23273.75	100	97	0	97	1	1	0	1	2	3	2	67.5	22.5	1.0563116777239	2.86575896778957	0.2	1	0.49221649998799	1	87.2717167926021	87.3716840981506	0.0999673055484891	0.200017992872745
23349	100	98	0	98	1	1	0	1	2	3	2	157.5	112.5	0.56507953663865	2.94343740964705	0.2	0	0	0	87.5717201330699	87.6716996286996	0.0999794956296682	0.200036034919322
23423.75	100	99	0	99	1	1	0	1	2	3	1	112.5	157.5	2.88449993790326	0.901237935610002	0.2	0	0	0	87.8717324943282	87.9717178409919	0.0999853466637433	0.2000328656286
23499	100	100	0	100	1	1	0	1	2	0	2	157.5	112.5	-2.97712615761493	0.861147975008079	0.2	0	0	0	88.1717421733774	88.2717204499058	0.0999782765284181	0.20002433238551
23574	100	101	0	101	1	1	0	1	2	0	1	112.5	157.5	-2.40477582750215	-3.09407444285169	0.2	0	0	0	88.4717467324808	88.5717062358744	0.0999595033936203	0.200026282574981
23649	100	102	0	102	1	1	0	1	2	0	1	22.5	157.5	2.02793446964314	2.39661629172558	0.2	0	0	0	88.7717600688338	88.8717393209226	0.099979252088815	0.200053832959384
23724	100	103	0	103	1	1	0	1	2	0	2	67.5	22.5	1.983744560529	2.87724090401153	0.2	0	0	0	89.0717736491933	89.1717465617694	0.0999729125760496	0.200034328270704
23799	100	104	0	104	1	1	0	1	2	0	1	22.5	157.5	-3.13497684794307	2.60085902345436	0.2	0	0	0	89.3717584600672	89.4717508773319	0.0999924172647297	0.200011898297817
23874	100	105	0	105	1	1	0	1	2	0	2	157.5	112.5	-2.35456022045493	1.0128532813135	0.2	0	0	0	89.6717783790082	89.7717661643401	0.0999877853319049	0.200027501676232
23949	100	106	0	106	1	1	0	1	2	0	1	22.5	67.5	0.667979752586207	-2.96442800360305	0.2	0	0	0	89.9717941535637	90.0717548760585	0.0999607224948704	0.200027989223599
24024	100	107	0	107	1	1	0	1	2	0	2	157.5	112.5	-2.63934944282687	-2.53607176570524	0.2	0	0	0	90.271787985228	90.3717713817023	0.099983396474272	0.200033109169453
24099	100	108	0	108	1	1	0	1	2	0	2	67.5	112.5	0.214831102354305	0.0507386429392964	0.2	0	0	0	90.5718130245805	90.6717966650613	0.0999836404807866	0.200041642878205
24174	100	109	0	109	1	1	0	1	2	0	2	67.5	112.5	-0.333557158994055	0.723374380156749	0.2	0	0	0	90.8718141703866	90.9717756239697	0.0999614535830915	0.200017505325377
24249	100	110	0	110	1	1	0	1	2	0	1	112.5	67.5	0.610573527720452	2.80954985062256	0.2	0	0	0	91.1718094646931	91.2717845719308	0.0999751072376966	0.200033840723336
24324	100	111	0	111	1	1	0	1	2	0	1	112.5	67.5	2.78425046598287	-0.636922404917852	0.2	0	0	0	91.471836942248	91.5718022966757	0.0999653544276953	0.20005237031728
24399	100	112	0	112	1	1	0	1	2	0	1	112.5	67.5	0.395216265616593	-3.04450215309198	0.2	0	0	0	91.7718390631489	91.8718185587786	0.0999794956296682	0.200036766473204
24474	100	113	0	113	1	1	0	1	2	0	1	22.5	157.5	1.92105633798473	-2.77536668175028	0.2	0	0	0	92.0718448418193	92.1718309200369	0.0999860782176256	0.200026283040643
24549	100	114	0	114	1	1	0	1	2	0	1	112.5	157.5	0.217692747059219	-1.12292347767613	0.2	0	0	0	92.3718503760174	92.4718313347548	0.099980958737433	0.20001945598051
24624	100	115	0	115	1	1	0	1	2	0	2	157.5	22.5	2.54866000411948	-1.19703581681345	0.2	0	0	0	92.6718576173298	92.7718412578106	0.0999836404807866	0.200026282574981
24699	100	116	0	116	1	1	0	1	2	0	2	157.5	112.5	1.72214149492511	1.21793764608774	0.2	0	0	0	92.9718646146357	93.0718509368598	0.0999863222241402	0.200023356825113
24774	100	117	0	117	1	1	0	1	2	0	1	112.5	157.5	-2.20971240381629	1.76357954239729	0.2	0	0	0	93.2718733185902	93.3718606159091	0.0999872973188758	0.200022381730378
24849	100	118	0	118	1	1	0	1	2	0	1	112.5	67.5	-2.87398382080729	-1.64869008852531	0.2	0	0	0	93.5718722702004	93.6718510342762	0.0999787640757859	0.200011654291302
24924	100	119	0	119	1	1	0	1	2	0	1	112.5	157.5	-1.49180791174644	2.95128215672287	0.2	0	0	0	93.8718929206952	93.9718692470342	0.0999763263389468	0.200041886419058
24999	100	120	0	120	1	1	0	1	2	0	2	67.5	22.5	0.959774391835729	-1.37392822729255	0.2	0	0	0	94.1718962611631	94.2718781949952	0.0999819338321686	0.200027014128864
25074	100	121	0	121	1	1	0	1	2	0	1	22.5	157.5	1.24098874610007	1.31088003478892	0.2	0	0	0	94.4719064277597	94.571892506443	0.0999860786832869	0.200028232764453
25149	100	122	0	122	1	1	0	1	2	0	2	157.5	22.5	2.64369874796653	-1.10685398533436	0.2	0	0	0	94.7719136690721	94.8718975530937	0.0999838840216398	0.200021162629128
25224	100	123	0	123	1	1	0	1	2	0	1	22.5	157.5	-1.15687561359292	-0.937592945464782	0.2	0	0	0	95.0719272494316	95.1719045503996	0.0999773009680212	0.200029696337879
25299	100	124	0	124	1	1	0	1	2	0	2	67.5	112.5	2.5305607406506	-1.59521141928073	0.2	0	0	0	95.3719349778257	95.4719171556644	0.0999821778386831	0.2000304274261
25374	100	125	0	125	1	1	0	1	2	0	2	157.5	22.5	2.00177414137685	-0.0144648634160052	0.2	0	0	0	95.6719388058409	95.7719190330245	0.0999802271835506	0.200021650176495
25449	100	126	0	126	1	1	0	1	2	0	2	67.5	112.5	0.807092244231889	-1.25795606432936	0.2	0	0	0	95.9719462906942	96.0719331009313	0.0999868102371693	0.200027257669717
25524	100	127	0	127	1	1	0	1	2	0	2	157.5	22.5	-0.77068760658271	3.11447353443858	0.2	0	0	0	96.271954019554	96.371938879136	0.0999848595820367	0.200020918622613
25599	100	128	0	128	1	1	0	1	2	0	2	67.5	22.5	2.30970471616453	2.28713081904681	0.2	0	0	0	96.5719639426097	96.6719444133341	0.0999804707244039	0.200025063473731
25674	100	129	0	129	1	1	0	1	2	0	1	112.5	157.5	3.09084521695637	-0.643458570889038	0.2	0	0	0	96.8719767914154	96.9719609194435	0.0999841280281544	0.200032378081232
25749	100	130	0	130	1	1	0	1	2	0	2	67.5	112.5	0.405768149825548	-2.16362762331976	0.2	0	0	0	97.1719811069779	97.2719637718983	0.0999826649203897	0.200020187534392
25824	100	131	0	131	1	1	0	1	2	0	1	112.5	67.5	-0.141936336980643	-1.34226067025388	0.2	0	0	0	97.4719600658864	97.5719500454143	0.0999899795278907	0.199996293988079
25899	100	132	0	132	1	1	0	1	2	3	1	22.5	157.5	-2.36130369694528	0.0596391235311153	0.2	0	0	0	97.7720004650764	97.8719850811176	0.0999846160411835	0.200050419662148
25974	100	133	0	133	1	1	0	1	2	3	2	157.5	112.5	-1.03910898482193	2.03797265440863	0.2	0	0	0	98.0720069748349	98.1719935410656	0.0999865662306547	0.200021893717349
26049	100	134	0	134	1	1	0	1	2	3	1	112.5	157.5	3.12906157360752	-0.737409721529023	0.2	0	0	0	98.3719956865534	98.4719720128924	0.0999763263389468	0.200002145487815
26124	100	135	0	135	1	1	0	1	2	3	2	67.5	112.5	-1.4262512218574	-1.76829582176738	0.2	0	0	0	98.6719919564202	98.7719743777998	0.0999824213795364	0.200019943527877
28749	100	136	1	0	1	2	0	2	2	3	1	22.5	67.5	-2.87135869687232	0.108349913539561	0.2	0	0	0	109.172292207833	109.272299985401	0.100007777567953	-1
28824	100	137	1	1	1	2	0	2	2	3	1	112.5	157.5	-3.14002967027362	0.890297491437297	0.2	0	0	0	109.472322611138	109.572308201808	0.0999855906702578	0.200022625736892
28899	100	138	1	2	1	2	0	2	2	3	2	157.5	22.5	2.88781158667185	1.84950646552417	0.2	0	0	0	109.772330827545	109.872310810722	0.099979983177036	0.200022625736892
28974	100	139	1	3	1	2	0	2	2	3	2	67.5	112.5	-0.873492029720297	1.31695847118475	0.2	0	0	0	110.072337580845	110.172321952879	0.0999843720346689	0.200026770122349
29049	100	140	1	4	1	2	0	2	2	0	1	112.5	67.5	-1.04138464350173	2.31092030029901	0.2	0	0	0	110.372345553245	110.472327731084	0.0999821778386831	0.200023600365967
29124	100	141	1	5	1	2	0	2	2	0	1	112.5	157.5	3.02532198945768	-2.6778387875776	0.2	0	0	0	110.672354257666	110.772341067437	0.099986809771508	0.200026526581496
29199	100	142	1	6	1	2	0	2	2	0	1	22.5	157.5	-2.63609712516481	-1.14333458467061	0.2	0	0	0	110.972368325107	111.072346601635	0.0999782765284181	0.200027257669717
29274	100	143	1	7	1	2	0	2	2	0	2	67.5	112.5	-1.50671389640793	1.00718055476982	0.2	0	0	0	111.272370202467	111.372335069813	0.0999648673459888	0.200023600831628
29349	100	144	1	8	1	2	0	2	2	0	1	22.5	157.5	1.67916914836113	-0.0322175816904013	0.2	0	0	0	111.572385733481	111.672358889598	0.0999731561169028	0.200050663668662
29424	100	145	1	9	1	2	0	2	2	0	2	67.5	22.5	-0.158693209922107	-2.5783121951146	0.2	0	0	0	111.872386147734	111.972371982411	0.0999858346767724	0.200027258135378
29499	100	146	1	10	1	2	0	2	2	0	1	22.5	157.5	0.603151576465754	1.31335808435912	0.2	0	0	0	112.172394364141	112.272377760615	0.099983396474272	0.200022381730378
29574	100	147	1	11	1	2	0	2	2	0	2	67.5	22.5	-2.80418728309534	1.81999792494781	0.2	0	0	0	112.472381856758	112.572387196124	0.100005339365453	0.200004096142948
29649	100	148	1	12	1	2	0	2	2	0	2	157.5	22.5	1.72645626385373	-3.0303823848971	0.2	0	0	0	112.772415672895	112.872393705882	0.0999780329875648	0.200028476770967
29724	100	149	1	13	1	2	0	2	2	0	2	67.5	22.5	-2.18288874740239	-2.8187937432339	0.2	0	0	0	113.072418769356	113.172404848039	0.0999860786832869	0.200025063473731
29799	100	150	1	14	1	2	0	2	2	0	2	67.5	112.5	-0.0957429338570317	-1.96824040994128	0.2	0	0	0	113.372409431729	113.472418427933	0.100008996203542	0.200004583690315
29874	100	151	1	15	1	2	0	2	2	0	2	67.5	112.5	-0.0194686432571487	2.68024803504452	0.2	0	0	0	113.672433251981	113.772417867556	0.0999846155755222	0.200014824047685
29949	100	152	1	16	1	2	0	2	2	0	1	112.5	67.5	3.04112330845914	1.26533941149369	0.2	0	0	0	113.972443662584	114.072428278159	0.0999846155755222	0.200025795027614
30024	100	153	1	17	1	2	0	2	2	0	2	67.5	22.5	-1.06060589741281	-2.86921512692969	0.2	0	0	0	114.272455048282	114.372431862168	0.0999768138863146	0.200026770122349
30099	100	154	1	18	1	2	0	2	2	0	2	67.5	22.5	-1.54287752048043	1.970729060506	0.2	0	0	0	114.572459607385	114.672426424921	0.09996681753546	0.200027745217085
30174	100	155	1	19	1	2	0	2	2	3	1	22.5	157.5	-0.585477894586643	1.93738144797937	0.2	0	0	0	114.87245441461	114.972436104435	0.099981689825654	0.200027989689261
30249	100	156	1	20	1	2	0	2	2	3	1	112.5	157.5	-0.257593471090732	2.31932123911636	0.2	0	0	0	115.172461167909	115.272443101741	0.0999819338321686	0.200025063473731
30324	100	157	1	21	1	2	0	2	2	3	1	22.5	67.5	1.19324536822402	-0.269316614216533	0.2	0	0	0	115.472485475708	115.572464239784	0.0999787640757859	0.200042373966426
30399	100	158	1	22	1	2	0	2	2	2	-1	45	0	0.884399207027434	1.96852131852533	0.2	0	0	0	115.77248686552	115.872468555346	0.099981689825654	0.200022625736892
30474	100	159	1	23	1	2	0	2	2	3	2	67.5	22.5	2.8814024007556	1.92631806735474	0.2	0	0	0	116.07249459438	116.172477503307	0.0999829089269042	0.200026039034128
30549	100	160	1	24	1	2	0	2	2	3	1	112.5	67.5	-0.48989578047766	-0.412211305422245	0.2	0	0	0	116.372501104139	116.472484500613	0.099983396474272	0.200023600831628
30624	100	161	1	25	1	2	0	2	2	3	2	157.5	112.5	2.65779323957204	1.59578248902526	0.2	0	0	0	116.67249542335	116.772494911216	0.0999994878657162	0.20001092273742
30699	100	162	1	26	1	2	0	2	2	3	2	67.5	112.5	-0.567307491393371	-2.46243423426926	0.2	0	0	0	116.972520218696	117.072500933427	0.0999807147309184	0.200025307480246
30774	100	163	1	27	1	2	0	2	2	0	1	22.5	67.5	-1.92627820270422	2.21461958908188	0.2	0	0	0	117.272526728455	117.372485256288	0.0999585278332233	0.200025795027614
30849	100	164	1	28	1	2	0	2	2	0	1	22.5	157.5	0.555312636122249	-2.0208834527992	0.2	0	0	0	117.572517146822	117.672512002289	0.0999948554672301	0.200031890533864
30924	100	165	1	29	1	2	0	2	2	0	2	67.5	22.5	-0.722842929111637	2.09114016737803	0.2	0	0	0	117.872517561074	117.972522656899	0.100005095824599	0.200005558785051
30999	100	166	1	30	1	2	0	2	2	0	1	22.5	67.5	-1.67200987285021	2.14679029284273	0.2	0	0	0	118.172540649772	118.272526484448	0.0999858346767724	0.200017992872745
31074	100	167	1	31	1	2	0	2	2	0	1	22.5	67.5	1.2089805115832	-0.709270071491825	0.2	0	0	0	118.472532043234	118.57254152745	0.100009484216571	0.200005558785051
31149	100	168	1	32	1	2	0	2	2	0	1	112.5	157.5	2.82553490039299	2.3085489814838	0.2	0	0	0	118.772566347383	118.872538041323	0.0999716939404607	0.200024819932878
31224	100	169	1	33	1	2	0	2	2	0	2	67.5	112.5	-1.02338971861624	2.53911082699424	0.2	0	0	0	119.072581390385	119.172543331981	0.0999619415961206	0.200043349061161
31299	100	170	1	34	1	2	0	2	2	0	2	67.5	22.5	2.69761087817851	2.56298828896286	0.2	0	0	0	119.372591069899	119.472568858881	0.0999777889810503	0.200047737918794
31374	100	171	1	35	1	2	0	2	2	0	1	112.5	157.5	1.34367888167972	2.60821730532851	0.2	0	0	0	119.672595384996	119.77255196264	0.0999565776437521	0.200026526115835
31449	100	172	1	36	1	2	0	2	2	0	2	157.5	22.5	-1.40607401522724	2.4579611225765	0.2	0	0	0	119.972578001674	120.072579683736	0.100001682061702	0.200026039034128
31524	100	173	1	37	1	2	0	2	2	0	1	112.5	67.5	-3.04582362413097	3.08052893566034	0.2	0	0	0	120.272607185412	120.372586193494	0.0999790080823004	0.200027501676232
31599	100	174	1	38	1	2	0	2	2	0	2	157.5	22.5	-0.371511689979152	-1.13746193772601	0.2	0	0	0	120.57259175228	120.672570272814	0.0999785205349326	0.200005558785051
31674	100	175	1	39	1	2	0	2	2	0	2	67.5	112.5	2.52168560269457	-2.24023302296462	0.2	0	0	0	120.872607282829	120.972584828269	0.099977545440197	0.200037010014057
31749	100	176	1	40	1	2	0	2	2	0	1	112.5	157.5	0.410735160266293	1.27695784972535	0.2	0	0	0	121.172606722452	121.272587680724	0.0999809582717717	0.20002189418301
31824	100	177	1	41	1	2	0	2	2	0	1	22.5	67.5	-0.339662325598563	-0.697033389925545	0.2	0	0	0	121.472645902541	121.572608087678	0.0999621851369739	0.200058221817017
31899	100	178	1	42	1	2	0	2	2	0	1	112.5	67.5	1.84276074061624	-0.566148203816807	0.2	0	0	0	121.772629737854	121.872602650896	0.0999729130417109	0.200021650176495
31974	100	179	1	43	1	2	0	2	2	0	1	112.5	67.5	0.795352103884994	2.3958401731427	0.2	0	0	0	122.072626495268	122.172611842398	0.0999853471294045	0.200023844372481
32049	100	180	1	44	1	2	0	2	2	0	1	112.5	157.5	2.04589821065749	3.11482186418376	0.2	0	0	0	122.372663725168	122.472645170987	0.0999814458191395	0.200051882769912
32124	100	181	1	45	1	2	0	2	2	0	2	157.5	112.5	0.13274806916012	-1.64088993069918	0.2	0	0	0	122.672660482116	122.772628518753	0.0999680366367102	0.200015311129391
32199	100	182	1	46	1	2	0	2	2	3	2	67.5	112.5	0.909406558069696	-2.4328559896326	0.2	0	0	0	122.972653338686	123.072661603801	0.100008265115321	0.200024819932878
32274	100	183	1	47	1	2	0	2	2	3	2	67.5	22.5	-0.900134414514212	2.56788454174333	0.2	0	0	0	123.272690080572	123.372670064215	0.0999799836426973	0.200028476770967
32349	100	184	1	48	1	2	0	2	2	3	1	112.5	67.5	2.64976926019812	1.99021920607619	0.2	0	0	0	123.572697078343	123.67266706517	0.0999699868261814	0.200027014128864
32424	100	185	1	49	1	2	0	2	2	1	-1	0	45	2.30799985865565	-0.80130085445711	0.2	0	0	0	123.872706025839	123.972667235881	0.0999612100422382	0.20003896066919
32499	100	186	1	50	1	2	0	2	2	3	1	22.5	67.5	-1.89374164271929	0.241791180065151	0.2	0	0	0	124.172719849739	124.272697882727	0.0999780329875648	0.200052613858134
32574	100	187	1	51	1	2	0	2	2	3	1	112.5	157.5	-0.653261930104506	2.6643324152085	0.2	0	0	0	124.472726115957	124.572704636026	0.0999785200692713	0.200028233230114
32649	100	188	1	52	1	2	0	2	2	3	2	157.5	112.5	-3.07135773426478	-0.574696773448701	0.2	0	0	0	124.772723604459	124.872711389791	0.0999877853319049	0.200018968433142
32724	100	189	1	53	1	2	0	2	2	3	2	157.5	22.5	-3.03809124125625	-2.62609657789878	0.2	0	0	0	125.072738159914	125.1727091223	0.0999709623865783	0.200026770122349
32799	100	190	1	54	1	2	0	2	2	0	2	67.5	112.5	2.5042186756705	0.103874924501159	0.2	0	0	0	125.372728822287	125.4727287977	0.099999975413084	0.200019699987024
32874	100	191	1	55	1	2	0	2	2	0	2	157.5	22.5	2.03045818832067	1.15426502189021	0.2	0	0	0	125.672761175781	125.772737014107	0.0999758383259177	0.200032378081232
32949	100	192	1	56	1	2	0	2	2	0	2	67.5	112.5	2.20201884325156	2.97576020011865	0.2	0	0	0	125.972733064555	126.07274718117	0.100014116615057	0.199996050447226
33024	100	193	1	57	1	2	0	2	2	0	1	112.5	67.5	-1.11833824641747	-1.68969624543922	0.2	0	0	0	126.272749082651	126.37275198428	0.100002901628613	0.200001901481301
33099	100	194	1	58	1	2	0	2	2	0	1	22.5	67.5	-1.31576949078498	-0.624304949769083	0.2	0	0	0	126.57274974091	126.672732649837	0.0999829089269042	0.199997756630182
33174	100	195	1	59	1	2	0	2	2	0	1	112.5	67.5	-2.82530885769617	0.281702261902811	0.2	0	0	0	126.87276941631	126.972769392189	0.0999999758787453	0.200036766473204
33249	100	196	1	60	1	2	0	2	2	0	2	157.5	112.5	0.319464352216392	-1.59609601141765	0.2	0	0	0	127.172799332067	127.272778583691	0.0999792516231537	0.200029939878732
33324	100	197	1	61	1	2	0	2	2	0	1	22.5	157.5	-1.17503106766012	-2.83958962568349	0.2	0	0	0	127.472808279563	127.572768026497	0.0999597469344735	0.200029695872217
33399	100	198	1	62	1	2	0	2	2	0	1	112.5	157.5	0.40883899341956	2.36308293571697	0.2	0	0	0	127.772811863571	127.8727959916	0.0999841280281544	0.20004383707419
33474	100	199	1	63	1	2	0	2	2	0	2	67.5	22.5	0.168990934897765	0.961182732822854	0.2	0	0	0	128.072819592431	128.172802745365	0.0999831529334188	0.200023600831628
33549	100	200	1	64	1	2	0	2	2	0	2	157.5	22.5	0.639504641914424	2.8291821032202	0.2	0	0	0	128.372802940197	128.472813887522	0.100010947324336	0.200000194832683
33624	100	201	1	65	1	2	0	2	2	0	1	112.5	67.5	0.289059839855316	-1.88138613468871	0.2	0	0	0	128.672836269252	128.772818446625	0.0999821773730218	0.200022381730378
33699	100	202	1	66	1	2	0	2	2	0	2	157.5	22.5	-1.45339508737048	2.77355505926417	0.2	0	0	0	128.972844973207	129.07282715058	0.0999821773730218	0.200026526581496
33774	100	203	1	67	1	2	0	2	2	0	2	157.5	22.5	-0.538604740438271	2.29521334045833	0.2	0	0	0	129.272836610209	129.372819763143	0.0999831529334188	0.200009459629655
33849	100	204	1	68	1	2	0	2	2	0	1	22.5	67.5	-1.87683295703931	0.392823649505426	0.2	0	0	0	129.572860918008	129.672867720481	0.100006802473217	0.200041154865175
33924	100	205	1	69	1	2	0	2	2	0	2	67.5	112.5	1.41964036441927	-0.628451296517965	0.2	0	0	0	129.872870353516	129.97285350645	0.0999831529334188	0.200002633035183
33999	100	206	1	70	1	2	0	2	2	0	2	67.5	112.5	-1.78132805907122	-1.83143441302704	0.2	0	0	0	130.17287881393	130.272860016208	0.0999812022782862	0.200025307480246
34074.25	100	207	1	71	1	2	0	2	2	0	2	67.5	112.5	-1.80024683149844	-1.44469638793543	0.2	0	0	0	130.472891662735	130.572866769508	0.0999751067720354	0.20003164652735
34149.25	100	208	1	72	1	2	0	2	2	0	2	157.5	22.5	2.87882464819658	-2.02282610132047	0.2	0	0	0	130.772891101893	130.872858162969	0.0999670610763133	0.20002433238551
34224.25	100	209	1	73	1	2	0	2	2	0	1	22.5	157.5	2.81036335603936	2.58260996761303	0.2	0	0	0	131.072902487591	131.172885396518	0.0999829089269042	0.200044324621558
34299.25	100	210	1	74	1	2	0	2	2	3	1	22.5	157.5	2.84803107841944	-0.240694605408053	0.2	0	0	0	131.372915092856	131.472894100472	0.0999790076166391	0.200029696337879
34374.25	100	211	1	75	1	2	0	2	2	3	2	67.5	112.5	-0.425243761660286	1.76986341832678	0.2	0	0	0	131.672918920405	131.772884031292	0.099965110886842	0.200024819932878
34449.25	100	212	1	76	1	2	0	2	2	3	1	112.5	67.5	0.0817686290626694	-1.99845005071274	0.2	0	0	0	131.97292859992	132.072909070645	0.0999804707244039	0.200044568628073
34524.25	100	213	1	77	1	2	0	2	2	1	-1	0	45	0.754985783171124	-0.748218898315191	0.2	0	0	0	132.272940229625	132.372920212802	0.099979983177036	0.200031158979982
34599.25	100	214	1	78	1	2	0	2	2	3	2	157.5	22.5	1.25298039634666	-2.58410355262276	0.2	0	0	0	132.572930159979	132.672930135857	0.0999999758787453	0.200009947177023
34674.25	100	215	1	79	1	2	0	2	2	3	1	22.5	67.5	1.81325064584201	2.78475329166364	0.2	1	0.492129947524518	1	132.872955443338	132.972935182508	0.0999797391705215	0.200025307480246
34749.25	100	216	1	80	1	2	0	2	2	3	2	67.5	22.5	1.09206785616052	-2.0279407446258	0.2	0	0	0	133.172957320698	133.272940229625	0.0999829089269042	0.200022138189524
34824.25	100	217	1	81	1	2	0	2	2	3	2	157.5	112.5	-1.97437169017587	1.77592511401329	0.2	0	0	0	133.472968218848	133.572932110634	0.0999638917855918	0.200027989223599
34899.25	100	218	1	82	1	2	0	2	2	0	2	67.5	112.5	2.0445070249916	3.1270174157416	0.2	0	0	0	133.772972534411	133.872962025926	0.0999894915148616	0.200040423776954
34974.25	100	219	1	83	1	2	0	2	2	0	1	22.5	67.5	-0.650630788156895	2.85365144451763	0.2	0	0	0	134.07299123425	134.172963659745	0.099972425494343	0.20002920832485
35049.25	100	220	1	84	1	2	0	2	2	0	2	157.5	22.5	-1.28801496460169	-2.48150613422028	0.2	0	0	0	134.372990673874	134.472977239639	0.0999865657649934	0.200027014128864
35124.25	100	221	1	85	1	2	0	2	2	0	2	67.5	22.5	-1.24326307731116	-1.70196624666908	0.2	0	0	0	134.672976215836	134.772956443019	0.0999802271835506	0.199998976197094
35199.25	100	222	1	86	1	2	0	2	2	0	2	157.5	112.5	-2.93492308366543	-1.01151169242104	0.2	0	0	0	134.973010031972	135.072989040054	0.0999790080823004	0.200053588952869
35274.25	100	223	1	87	1	2	0	2	2	0	1	22.5	67.5	1.82229032534508	-3.00916353342202	0.2	0	0	0	135.273017029278	135.372997500468	0.0999804711900651	0.200027989223599
35349.25	100	224	1	88	1	2	0	2	2	0	2	157.5	112.5	0.897444057105882	1.09572360521608	0.2	0	0	0	135.573008423205	135.673008642625	0.100000219419599	0.20001092273742
35424.25	100	225	1	89	1	2	0	2	2	0	2	67.5	22.5	1.56079824259765	-1.4719400887038	0.2	0	0	0	135.873030780349	135.973016127478	0.0999853471294045	0.200022137723863
35499.25	100	226	1	90	1	2	0	2	2	0	2	157.5	22.5	0.946543310136486	0.663624860528378	0.2	0	0	0	136.173022173811	136.272997281048	0.0999751072376966	0.200006046332419
35574.25	100	227	1	91	1	2	0	2	2	0	1	112.5	67.5	-2.5498702468713	2.3839193806967	0.2	0	0	0	136.473046238068	136.573029878084	0.0999836400151253	0.200048957020044
35649.25	100	228	1	92	1	2	0	2	2	0	2	67.5	22.5	-2.67176010812524	-2.02505860581025	0.2	0	0	0	136.773052259814	136.873044189997	0.0999919301830232	0.200022381730378
35724.25	100	229	1	93	1	2	0	2	2	0	2	67.5	22.5	1.39879808491953	-1.2544950552536	0.2	0	0	0	137.07306510862	137.173046798445	0.099981689825654	0.200020918622613
35799.25	100	230	1	94	1	2	0	2	2	0	1	112.5	157.5	2.81206893208588	-1.60561805851272	0.2	0	0	0	137.373080151621	137.473053308204	0.0999731565825641	0.200033353175968
35874.25	100	231	1	95	1	2	0	2	2	0	1	22.5	157.5	0.851681346379268	-1.42721792284638	0.2	0	0	0	137.673086417839	137.773062987719	0.0999765698798001	0.200033109635115
35949.25	100	232	1	96	1	2	0	2	2	0	1	22.5	67.5	1.34377062180643	-0.702894394863525	0.2	0	0	0	137.973069765605	138.073045603931	0.0999758383259177	0.200006777886301
36024.25	100	233	1	97	1	2	0	2	2	0	1	22.5	67.5	2.9781200818212	1.2358156960119	0.2	0	0	0	138.27307554381	138.373084296472	0.100008752662688	0.200029939878732
36099.25	100	234	1	98	1	2	0	2	2	0	1	112.5	157.5	-1.54808219903745	1.44007242018442	0.2	0	0	0	138.573106922209	138.673089831136	0.0999829089269042	0.200022625736892
36174.25	100	235	1	99	1	2	0	2	2	0	2	157.5	112.5	-2.47016042945316	1.51830865271558	0.2	0	0	0	138.873114163056	138.973097559996	0.0999833969399333	0.200024331919849
36249.25	100	236	1	100	1	2	0	2	2	0	2	157.5	112.5	-2.76255452651099	2.64961933539365	0.2	0	0	0	139.173121648375	139.273106019944	0.0999843715690076	0.200024088378996
36324.25	100	237	1	101	1	2	0	2	2	0	2	67.5	112.5	-3.00556694574476	-2.85923684809809	0.2	0	0	0	139.473128401674	139.57311301725	0.0999846155755222	0.200022381730378
36399.25	100	238	1	102	1	2	0	2	2	3	2	157.5	112.5	-2.48044853731559	-0.235331785971167	0.2	0	0	0	139.773135155439	139.87312684115	0.0999916857108474	0.200022138189524
36474.25	100	239	1	103	1	2	0	2	2	3	1	112.5	67.5	-1.77260010101578	-1.89439570619777	0.2	0	0	0	140.073144590482	140.173134326469	0.0999897359870374	0.200017749331892
36549.25	100	240	1	104	1	2	0	2	2	3	2	67.5	112.5	2.47000738238754	0.787465499337888	0.2	0	0	0	140.373159633949	140.473141079769	0.0999814458191395	0.200025307480246
36624.25	100	241	1	105	1	2	0	2	2	2	-1	45	0	2.3408971264847	1.71070383072728	0.2	0	0	0	140.673173945397	140.773133204784	0.0999592593871057	0.2000328656286
36699.25	100	242	1	106	1	2	0	2	2	3	1	22.5	67.5	0.251140885723718	-2.27599864876807	0.2	0	0	0	140.973172165453	141.073158731684	0.0999865662306547	0.20003896066919
36774.25	100	243	1	107	1	2	0	2	2	3	1	22.5	157.5	-2.73646670398311	1.07846780698926	0.2	0	0	0	141.273162827827	141.373151344247	0.099988516420126	0.200004096142948
36849.25	100	244	1	108	1	2	0	2	2	3	2	157.5	22.5	-0.28929284888528	0.861720296764835	0.2	0	0	0	141.573192743119	141.673149076756	0.0999563336372375	0.20004139887169
36924.25	100	245	1	109	1	2	0	2	2	3	2	67.5	22.5	2.60982982011717	0.65089445123724	0.2	0	0	0	141.873199740425	141.973164119758	0.0999643793329597	0.200050663668662
36999.25	100	246	1	110	1	2	0	2	2	0	1	22.5	67.5	3.11947379873895	2.38728014109012	0.2	0	0	0	142.173208444379	142.273190134205	0.099981689825654	0.200044324621558
37074.25	100	247	1	111	1	2	0	2	2	0	2	157.5	112.5	-2.87296398502711	-3.08662464201057	0.2	0	0	0	142.473199350294	142.57317908993	0.0999797396361828	0.200009216088802
37149.25	100	248	1	112	1	2	0	2	2	0	2	157.5	112.5	-2.68416932002223	-1.34465010593697	0.2	0	0	0	142.773207322694	142.873211686965	0.100004364270717	0.200028232764453
37224.25	100	249	1	113	1	2	0	2	2	0	1	112.5	157.5	-1.14136569532986	-0.720307926710199	0.2	0	0	0	143.073232118506	143.173216490075	0.0999843715690076	0.200020431540906
37299.25	100	250	1	114	1	2	0	2	2	0	1	112.5	67.5	0.0987366842712705	-2.18138652553307	0.2	0	0	0	143.373240578454	143.473203982692	0.099963404238224	0.200024088378996
37374.25	100	251	1	115	1	2	0	2	2	0	1	22.5	157.5	-2.96675833500647	1.0374392577991	0.2	0	0	0	143.673233191017	143.773206835147	0.0999736441299319	0.20002920832485
37449.25	100	252	1	116	1	2	0	2	2	0	2	157.5	112.5	1.66509308269663	2.77478321549876	0.2	0	0	0	143.973253841978	144.0732201715	0.0999663295224309	0.200047006830573
37524.25	100	253	1	117	1	2	0	2	2	0	2	157.5	112.5	-0.960150418224267	-1.9859374964822	0.2	0	0	0	144.273267178331	144.373250087257	0.0999829089269042	0.200047006830573
37599.25	100	254	1	118	1	2	0	2	2	0	2	67.5	22.5	-0.54035471332499	2.20947161927785	0.2	0	0	0	144.573272468988	144.673254158814	0.099981689825654	0.200022381730378
37674.25	100	255	1	119	1	2	0	2	2	0	2	157.5	22.5	-1.9154994238499	2.54582347805073	0.2	0	0	0	144.873291412834	144.973266032059	0.0999746192246675	0.200037254020572
37749.25	100	256	1	120	1	2	0	2	2	0	1	112.5	67.5	1.98139974244954	3.08389682202417	0.2	0	0	0	145.173287926242	145.273255475331	0.0999675490893424	0.20002189418301
37824.25	100	257	1	121	1	2	0	2	2	0	1	22.5	157.5	-0.828338729115962	2.67440928206431	0.2	0	0	0	145.473298580851	145.573277832475	0.0999792516231537	0.200043105520308
37899.25	100	258	1	122	1	2	0	2	2	0	2	157.5	112.5	-1.59888605351864	-1.10230304069787	0.2	0	0	0	145.773307528812	145.873287999537	0.0999804707244039	0.200029696337879
37974.25	100	259	1	123	1	2	0	2	2	0	1	112.5	157.5	-0.961059247814912	-2.9132453216109	0.2	0	0	0	146.073293558322	146.173293533735	0.099999975413084	0.200005558785051
38049.25	100	260	1	124	1	2	0	2	2	0	1	22.5	67.5	2.4355757557358	1.25447917002687	0.2	0	0	0	146.373324936721	146.473286390305	0.0999614535830915	0.200031402986497
38124.25	100	261	1	125	1	2	0	2	2	0	2	157.5	22.5	2.53434302930242	2.24468114314195	0.2	0	0	0	146.673329739831	146.77331094211	0.0999812022782862	0.200043349526823
38199.25	100	262	1	126	1	2	0	2	2	0	1	22.5	157.5	0.224289153122799	0.876042099106783	0.2	0	0	0	146.973340150435	147.073322815355	0.0999826649203897	0.20002920832485
38274.25	100	263	1	127	1	2	0	2	2	0	2	157.5	22.5	1.95608208906022	-1.17174343109633	0.2	0	0	0	147.273329837248	147.373327130917	0.0999972936697304	0.200007021892816
38349.25	100	264	1	128	1	2	0	2	2	0	1	112.5	157.5	1.83718502838624	-1.03219459775826	0.2	0	0	0	147.573340491857	147.673325350974	0.0999848591163754	0.20001336093992
38424.25	100	265	1	129	1	2	0	2	2	0	2	157.5	112.5	-1.16762703605143	0.238168231634143	0.2	0	0	0	147.873362117447	147.973343319725	0.0999812022782862	0.200036766473204
38499.25	100	266	1	130	1	2	0	2	2	0	2	157.5	112.5	1.99884344082935	-2.87208477886317	0.2	0	0	0	148.173368871212	148.273357387632	0.099988516420126	0.20002555148676
38574.25	100	267	1	131	1	2	0	2	2	0	1	112.5	67.5	1.46346096237592	3.11223872446777	0.2	0	0	0	148.473376356065	148.573326594662	0.099950238596648	0.200018968433142
38649.25	100	268	1	132	1	2	0	2	2	0	1	112.5	67.5	-0.240163207492703	0.950021753456095	0.2	0	0	0	148.773383840919	148.873370407149	0.0999865662306547	0.20005724625662
38724.25	100	269	1	133	1	2	0	2	2	0	2	67.5	112.5	-1.01036508774663	2.49737413327014	0.2	0	0	0	149.073396202177	149.173377648462	0.0999814462848008	0.200025795027614
38799.25	100	270	1	134	1	2	0	2	2	0	1	22.5	157.5	0.246769131187028	2.7071859651738	0.2	0	0	0	149.373384182341	149.473370261025	0.0999860786832869	0.200006533879787
38874.25	100	271	1	135	1	2	0	2	2	0	1	112.5	157.5	0.492003227370322	1.74828451796966	0.2	0	0	0	149.673387034796	149.773370675277	0.0999836404807866	0.200016773771495
38949.25	100	272	1	136	1	2	0	2	2	0	1	22.5	67.5	0.764913888610369	-0.200297603012686	0.2	0	0	0	149.973404516	150.073402297217	0.0999977812170982	0.200033840723336
39024.25	100	273	1	137	1	2	0	2	2	0	1	112.5	157.5	-1.78796252826763	1.96535969795661	0.2	0	0	0	150.27342711715	150.373410757631	0.0999836404807866	0.200024819932878
39099.25	100	274	1	138	1	2	0	2	2	0	1	22.5	157.5	2.2938063330985	2.05890478991606	0.2	0	0	0	150.573438259307	150.673417998943	0.0999797396361828	0.200027501676232
39174.25	100	275	1	139	1	2	0	2	2	0	1	22.5	157.5	-2.47285837034676	0.51840717009999	0.2	0	0	0	150.873446963262	150.973408416845	0.0999614535830915	0.200028964318335
39249.25	100	276	1	140	1	2	0	2	2	3	2	67.5	22.5	-2.41947402343582	-0.810322618624144	0.2	0	0	0	151.173455911223	151.273436381947	0.0999804707244039	0.200047494377941
39324.25	100	277	1	141	1	2	0	2	2	3	1	22.5	157.5	3.02522714388381	2.41330343101153	0.2	0	0	0	151.473458763678	151.573439965956	0.0999812022782862	0.200022381730378
39399.25	100	278	1	142	1	2	0	2	2	3	1	112.5	67.5	-2.98628266606793	-2.59544314024083	0.2	0	0	0	151.773469418287	151.873456959613	0.0999875413253903	0.200029452331364
39474.25	100	279	1	143	1	2	0	2	2	3	2	157.5	112.5	0.512540184180525	0.187473626700943	0.2	0	0	0	152.073483486194	152.17345639877	0.0999729125760496	0.200026526581496
40641	100	280	2	0	2	2	90	1	2	3	2	67.5	22.5	-1.24578916900288	2.42814974056849	0.266666666666667	0	0	0	156.740263280459	156.840249115136	0.0999858346767724	-1
40736.75	100	281	2	1	2	2	90	1	2	3	1	112.5	67.5	1.66127630677706	-1.77839678939857	0.283333333333333	0	0	0	157.123631710187	157.223577072378	0.0999453621916473	0.28338259505108
40799.25	100	282	2	2	2	2	90	1	2	3	2	157.5	22.5	-2.90983519273375	2.34144408395144	0.15	0	0	0	157.373616776895	157.473597003613	0.0999802267178893	0.15003970451653
40853.5	100	283	2	3	2	2	90	1	2	3	1	112.5	157.5	-1.24480952005296	-0.351332252790177	0.116666666666667	0	0	0	157.590291598812	157.690252321307	0.0999607224948704	0.116694595199078
40928.5	100	284	2	4	2	2	90	1	2	0	2	67.5	22.5	-2.48499147373989	1.53233175170608	0.2	0	0	0	157.890299083665	157.990270290058	0.0999712063930929	0.200046762358397
40978.5	100	285	2	5	2	2	90	1	2	0	2	67.5	112.5	-2.15501145101844	-1.83153607870172	0.1	0	0	0	158.090295134112	158.190274142195	0.0999790080823004	0.100024844054133
41036.75	100	286	2	6	2	2	90	1	2	0	2	157.5	112.5	-1.30991111497727	0.784756900194898	0.133333333333333	0	0	0	158.32364190137	158.423624566291	0.0999826649203897	0.133367759175599
41086.75	100	287	2	7	2	2	90	1	2	0	2	157.5	112.5	2.92984761605592	-2.81954508446855	0.1	0	0	0	158.523641121108	158.62362305494	0.0999819338321686	0.100016554817557
41170.25	100	288	2	8	2	2	90	1	2	0	1	112.5	67.5	1.81483356344854	-1.27293598451111	0.233333333333333	0	0	0	158.85698591359	158.956968090963	0.0999821773730218	0.233362858649343
41228.5	100	289	2	9	2	2	90	1	2	0	1	112.5	157.5	0.207026760511568	-2.44769432901095	0.133333333333333	0	0	0	159.090325122699	159.190310225822	0.09998510312289	0.133357031736523
41286.75	100	290	2	10	2	2	90	1	2	0	1	22.5	157.5	-2.43898855814956	2.8394265909026	0.133333333333333	0	0	0	159.323665306903	159.423644071445	0.0999787645414472	0.13335508108139
41361.75	100	291	2	11	2	2	90	1	2	0	1	112.5	157.5	-2.16567894177656	0.130787603911674	0.2	0	0	0	159.623674498871	159.723658626899	0.0999841280281544	0.2000304274261
41445.25	100	292	2	12	2	2	90	1	2	0	1	22.5	67.5	-1.37605520781078	-3.03231578941584	0.233333333333333	0	0	0	159.957020509988	160.057002687827	0.0999821778386831	0.233361883088946
41532.75	100	293	2	13	2	2	90	1	2	0	1	22.5	67.5	-2.12813962113269	-2.06421015240397	0.25	0	0	0	160.307004089467	160.40701089194	0.100006802473217	0.250001401640475
41624.25	100	294	2	14	2	2	90	1	2	0	2	157.5	22.5	0.0276847663975275	-0.329253089413485	0.266666666666667	0	0	0	160.673704231158	160.773686408997	0.0999821778386831	0.266693339217454
41678.5	100	295	2	15	2	2	90	1	2	0	1	112.5	157.5	0.991446795809894	2.67301209404702	0.116666666666667	0	0	0	160.890361255035	160.990342945326	0.0999816902913153	0.116674846038222
41745.25	100	296	2	16	2	2	90	1	2	0	1	112.5	157.5	1.32944235138046	0.989394944833816	0.166666666666667	0	0	0	161.157056545373	161.257032871246	0.0999763258732855	0.166713600046933
41820.25	100	297	2	17	2	2	90	1	2	0	2	67.5	112.5	0.937258425857592	2.92396243713364	0.2	0	0	0	161.457056959625	161.557044744957	0.0999877853319049	0.200024088378996
41911.75	100	298	2	18	2	2	90	1	2	0	1	112.5	157.5	-2.55803535024633	1.30956639548682	0.266666666666667	0	0	0	161.82374003483	161.923689785413	0.0999497505836189	0.266695289872587
41982.75	100	299	2	19	2	2	90	1	2	0	1	22.5	67.5	-2.77383817520834	1.39678077253335	0.183333333333333	0	0	0	162.107047048863	162.207029470243	0.0999824213795364	0.183357263449579
42036.75	100	300	2	20	2	2	90	1	2	3	1	112.5	67.5	0.956454973481336	2.07464170922248	0.116666666666667	0	0	0	162.323751859367	162.423732818104	0.099980958737433	0.116722389124334
42086.75	100	301	2	21	2	2	90	1	2	3	2	67.5	22.5	-1.3031327742151	2.833031628647	0.1	0	0	0	162.523756687064	162.62373545114	0.0999787640757859	0.100023868959397
42186.75	100	302	2	22	2	2	90	1	2	3	1	112.5	157.5	-2.58811957775941	2.13597484406923	0.3	0	0	0	162.923750006594	163.023752420209	0.100002413615584	0.300014555454254
42270.25	100	303	2	23	2	2	90	1	2	2	-1	45	90	2.04052665282742	1.0511187697811	0.233333333333333	0	0	0	163.257112840656	163.357069905847	0.0999570651911199	0.233360420446843
42328.5	100	304	2	24	2	2	90	1	2	3	1	22.5	157.5	1.54809213177615	2.8214287385652	0.133333333333333	0	0	0	163.490448148921	163.590432520956	0.0999843720346689	0.133378243073821
42420.25	100	305	2	25	2	2	90	1	2	3	1	22.5	67.5	-0.531840933776827	1.76966107756547	0.266666666666667	0	0	0	163.857096115593	163.957078048959	0.0999819333665073	0.266663594637066
42491	100	306	2	26	2	2	90	1	2	3	2	157.5	112.5	-1.24946464595466	0.503519278714596	0.183333333333333	0	0	0	164.14046603255	164.240431874525	0.0999658419750631	0.183387983590364
42557.75	100	307	2	27	2	2	90	1	2	3	2	67.5	112.5	-0.925601127651658	-0.778798348645608	0.166666666666667	0	0	0	164.407149863429	164.507089618128	0.0999397546984255	0.166717988904566
42653.5	100	308	2	28	2	2	90	1	2	0	2	67.5	112.5	1.14857385796827	0.802333917104793	0.283333333333333	0	0	0	164.79049025476	164.890469750389	0.0999794956296682	0.283400636631995
42728.5	100	309	2	29	2	2	90	1	2	0	1	22.5	67.5	1.44704745508388	1.99408211262171	0.2	0	0	0	165.090500421822	165.190477966797	0.0999775449745357	0.200030671432614
42807.75	100	310	2	30	2	2	90	1	2	0	1	112.5	157.5	-1.58395561727309	-1.0765845580578	0.216666666666667	0	0	0	165.407172293868	165.507164955139	0.0999926612712443	0.216694327071309
42895.25	100	311	2	31	2	2	90	1	2	0	2	157.5	22.5	-2.54280863922025	2.2428540026156	0.25	0	0	0	165.75718805613	165.857163650915	0.0999755947850645	0.250023100990802
42986.75	100	312	2	32	2	2	90	1	2	0	1	22.5	157.5	-1.87504628080341	-1.6750289687085	0.266666666666667	0	0	0	166.123863816727	166.223824295215	0.0999604784883559	0.266700165811926
43036.75	100	313	2	33	2	2	90	1	2	0	1	112.5	157.5	2.90800977334203	0.292905577954208	0.1	0	0	0	166.32384426333	166.423837168608	0.0999929052777588	0.100019968114793
43116	100	314	2	34	2	2	90	1	2	0	2	157.5	112.5	-2.95965333648154	-2.90447909770524	0.216666666666667	0	0	0	166.640531251673	166.740537322592	0.100006070919335	0.216694083064795
43186.75	100	315	2	35	2	2	90	1	2	0	1	112.5	67.5	2.857877129252	1.62324357747103	0.183333333333333	0	0	0	166.923869473394	167.023855308071	0.0999858346767724	0.183332150802016
43286.75	100	316	2	36	2	2	90	1	2	0	2	157.5	22.5	-0.457546171024971	0.793894389302389	0.3	0	0	0	167.323881566059	167.423862524796	0.099980958737433	0.300026257988065
43386.75	100	317	2	37	2	2	90	1	2	0	2	157.5	112.5	0.845437988467161	0.985971978042581	0.3	0	0	0	167.723901217338	167.823880468961	0.0999792516231537	0.30003869254142
43482.75	100	318	2	38	2	2	90	1	2	0	2	157.5	112.5	-0.15382209614029	3.11453237934718	0.283333333333333	0	0	0	168.107235757634	168.207215253264	0.0999794956296682	0.283355288673192
43532.75	100	319	2	39	2	2	90	1	2	0	1	22.5	67.5	0.309287421039534	-0.601076034948401	0.1	0	0	0	168.307249849662	168.407222762238	0.0999729125760496	0.100034596398473
43603.5	100	320	2	40	2	2	90	1	2	0	2	67.5	112.5	-0.733168963691366	-2.43645244395794	0.183333333333333	0	0	0	168.590583438985	168.690565616358	0.0999821773730218	0.183360676746815
43657.75	100	321	2	41	2	2	90	1	2	0	2	67.5	112.5	-1.9589992646166	-1.84872367013533	0.116666666666667	0	0	0	168.807258748449	168.907238488086	0.0999797396361828	0.116693132091314
43745.25	100	322	2	42	2	2	90	1	2	0	1	112.5	67.5	-3.00140944968552	0.944403526531946	0.25	0	0	0	169.157265489921	169.257252787706	0.0999872977845371	0.250027001835406
43820.25	100	323	2	43	2	2	90	1	2	0	1	22.5	157.5	-2.61782554843333	0.884759154717712	0.2	0	0	0	169.457259809133	169.557246131357	0.0999863222241402	0.200007021427155
43891	100	324	2	44	2	2	90	1	2	0	2	157.5	22.5	1.03874252512121	-2.43708872973214	0.183333333333333	0	0	0	169.740601931699	169.840585084632	0.0999831529334188	0.183355800341815
43949.25	100	325	2	45	2	2	90	1	2	0	2	157.5	22.5	2.50919142719314	1.86464630614108	0.133333333333333	0	0	0	169.973936996423	170.073918686248	0.099981689825654	0.133351911790669
44016	100	326	2	46	2	2	90	1	2	0	1	22.5	157.5	1.35031045971421	2.42633905914066	0.166666666666667	0	0	0	170.240643745288	170.340630799066	0.0999870537780225	0.166725059039891
44078.5	100	327	2	47	2	2	90	1	2	0	1	112.5	67.5	0.557281236547699	-1.87504201999714	0.15	0	0	0	170.490636126138	170.590620254166	0.0999841280281544	0.150005327071995
44149.25	100	328	2	48	2	2	90	1	2	0	1	112.5	157.5	-2.59545433219773	-1.29074792224273	0.183333333333333	0	0	0	170.773980199359	170.873958232347	0.0999780329875648	0.183359945192933
44224.25	100	329	2	49	2	2	90	1	2	0	2	157.5	112.5	-0.236158104397262	2.09360236624023	0.2	0	0	0	171.07396842353	171.173953039106	0.0999846155755222	0.200010191183537
44320.25	100	330	2	50	2	2	90	1	2	0	1	112.5	67.5	-0.647207393977803	0.813060871750031	0.283333333333333	0	0	0	171.457335634157	171.557304401882	0.0999687677249312	0.28338259505108
44374.25	100	331	2	51	2	2	90	1	2	0	1	22.5	157.5	2.97196130547465	0.496411294651101	0.116666666666667	0	0	0	171.673985587433	171.773994584102	0.100008996669203	0.116681185550988
44466	100	332	2	52	2	2	90	1	2	0	1	22.5	67.5	-3.10376027441408	-1.15155782467689	0.266666666666667	0	0	0	172.040671588387	172.14065059647	0.0999790080823004	0.266677004285157
44520.25	100	333	2	53	2	2	90	1	2	0	2	157.5	22.5	0.0716406625873587	1.11412347405893	0.116666666666667	0	0	0	172.257358600851	172.357319566887	0.0999609660357237	0.116708004381508
44582.75	100	334	2	54	2	2	90	1	2	0	2	67.5	22.5	2.51288511623715	-1.70297236577391	0.15	0	0	0	172.507362440694	172.607342667878	0.0999802271835506	0.150042873807251
44662	100	335	2	55	2	2	90	1	2	0	2	67.5	22.5	-0.282688510263554	0.0726158164059418	0.216666666666667	0	0	0	172.8240411398	172.924015271477	0.0999741316772997	0.216698471922427
44728.5	100	336	2	56	2	2	90	1	2	0	2	157.5	112.5	-0.76891838134604	2.84887342919605	0.166666666666667	0	0	0	173.090705465525	173.190689350013	0.0999838844873011	0.166690194047987
44778.5	100	337	2	57	2	2	90	1	2	0	2	67.5	22.5	1.16148925855095	0.155591085361494	0.1	0	0	0	173.290714194067	173.390691007953	0.0999768138863146	0.100024844054133
44857.75	100	338	2	58	2	2	90	1	2	3	1	22.5	67.5	3.02722076868265	1.86255446720233	0.216666666666667	0	0	0	173.607387041207	173.707375314087	0.0999882728792727	0.216696033254266
44928.5	100	339	2	59	2	2	90	1	2	3	2	67.5	112.5	-0.529509750834245	1.82465610433283	0.183333333333333	0	0	0	173.890734284185	173.990718655754	0.0999843715690076	0.183358970098197
45024.5	100	340	2	60	2	2	90	1	2	3	1	22.5	157.5	2.46117682435753	-1.18170064041522	0.283333333333333	0	0	0	174.274067848921	174.374063679948	0.099995831027627	0.283349193166941
45078.5	100	341	2	61	2	2	90	1	2	1	-1	90	135	1.85065244404643	-0.5211751659706	0.116666666666667	0	0	0	174.490754617844	174.59071875317	0.0999641353264451	0.116690937895328
45178.5	100	342	2	62	2	2	90	1	2	3	2	157.5	112.5	-2.72740528187235	-1.32575339888671	0.3	0	0	0	174.890758177266	174.990713535808	0.0999553585425019	0.300039424095303
45237	100	343	2	63	2	2	90	1	2	3	2	67.5	22.5	-1.64364734824609	-2.36403282292675	0.133333333333333	1	0.625268525909632	1	175.124071055092	175.224055426661	0.0999843715690076	0.133357519283891
45287	100	344	2	64	2	2	90	1	2	3	1	112.5	157.5	-2.4114467997165	3.08593837778244	0.1	0	0	0	175.324074419681	175.424056841061	0.0999824213795364	0.100018993020058
45374.5	100	345	2	65	2	2	90	1	2	3	1	112.5	67.5	1.77269069822783	0.620666093564433	0.25	0	0	0	175.674108711537	175.774096983951	0.0999882724136114	0.250051870476454
45457.75	100	346	2	66	2	2	90	1	2	0	2	157.5	22.5	1.24241958287094	-1.63109426423485	0.233333333333333	0	0	0	176.007460086606	176.107438119594	0.0999780329875648	0.233363102655858
45537	100	347	2	67	2	2	90	1	2	0	1	112.5	67.5	-1.84786304671255	-1.12769214766646	0.216666666666667	0	0	0	176.324130007997	176.424096825533	0.09996681753546	0.216691888403147
45616	100	348	2	68	2	2	90	1	2	0	2	157.5	22.5	-2.19298417131997	-2.46389481472226	0.216666666666667	0	0	0	176.640789689496	176.740761627443	0.0999719379469752	0.216692863963544
45670.25	100	349	2	69	2	2	90	1	2	0	1	22.5	67.5	-0.15856826825732	0.749912797808859	0.116666666666667	0	0	0	176.857480846811	176.95748082269	0.0999999758787453	0.116719219367951
45753.5	100	350	2	70	2	2	90	1	2	0	1	22.5	157.5	-1.89223283237219	0.853169750061513	0.233333333333333	0	0	0	177.190821494441	177.290799283423	0.0999777889810503	0.233340671751648
45845.25	100	351	2	71	2	2	90	1	2	0	1	112.5	67.5	-2.06968721315856	-1.72910964685726	0.266666666666667	0	0	0	177.557492623106	177.657473337837	0.0999807147309184	0.266693339683115
45945.25	100	352	2	72	2	2	90	1	2	0	1	112.5	157.5	-2.55472278310159	-2.99144618028959	0.3	0	0	0	177.957507885527	178.057487625163	0.0999797396361828	0.300034547690302
46041	100	353	2	73	2	2	90	1	2	0	1	22.5	157.5	-1.17948159234289	1.96124258485438	0.283333333333333	0	0	0	178.340856323019	178.440841426142	0.09998510312289	0.283368697855622
46120.25	100	354	2	74	2	2	90	1	2	0	1	22.5	67.5	0.852800772195721	-1.58085502554773	0.216666666666667	0	0	0	178.657514785416	178.757500863634	0.0999860782176256	0.216673359274864
46174.5	100	355	2	75	2	2	90	1	2	0	2	157.5	112.5	-1.088082229002	2.94905201237645	0.116666666666667	0	0	0	178.87418887578	178.974185438361	0.0999965625815094	0.11668801214546
46270.25	100	356	2	76	2	2	90	1	2	0	2	67.5	22.5	-0.614442240836741	-2.86686906245001	0.283333333333333	0	0	0	179.257554380223	179.357530950103	0.0999765698798001	0.283368941862136
46345.25	100	357	2	77	2	2	90	1	2	0	1	112.5	67.5	-2.91610906327638	1.02389687599235	0.2	0	0	0	179.557554306928	179.657539897598	0.0999855906702578	0.200023356825113
46395.25	100	358	2	78	2	2	90	1	2	0	1	112.5	67.5	-2.02742610976362	-2.0529133516053	0.1	0	0	0	179.757556696422	179.857526195701	0.0999694992788136	0.100016798824072
46478.5	100	359	2	79	2	2	90	1	2	0	1	112.5	157.5	-3.1200304637838	1.75995175591716	0.233333333333333	0	0	0	180.090898319148	180.190899513662	0.100001194514334	0.233372123446316
46574.5	100	360	2	80	2	2	90	1	2	0	1	22.5	67.5	2.0824213480112	0.481944258426246	0.283333333333333	0	0	0	180.4742172556	180.574196507223	0.0999792516231537	0.283317741937935
46637	100	361	2	81	2	2	90	1	2	0	1	112.5	157.5	2.73017301284623	-2.25085018431208	0.15	0	0	0	180.724253765773	180.824242038652	0.0999882728792727	0.150057258550078
46699.5	100	362	2	82	2	2	90	1	2	0	2	157.5	22.5	-2.72686554518307	0.23528283439053	0.15	0	0	0	180.974257606082	181.074236857705	0.0999792516231537	0.150015567429364
46766	100	363	2	83	2	2	90	1	2	0	2	67.5	112.5	-0.312161743501858	-2.32493191226255	0.166666666666667	0	0	0	181.240935585462	181.340910448693	0.0999748632311821	0.166698727756739
46853.5	100	364	2	84	2	2	90	1	2	0	1	112.5	157.5	-1.32701065270251	-0.27864235791467	0.25	0	0	0	181.590943545569	181.690908900462	0.0999653548933566	0.250033096875995
46920.25	100	365	2	85	2	2	90	1	2	0	1	22.5	67.5	2.49257307783747	1.03036005654826	0.166666666666667	0	0	0	181.857597387861	181.957601264585	0.100003876723349	0.166688487399369
47020.25	100	366	2	86	2	2	90	1	2	0	2	67.5	22.5	3.05394618053026	3.00228518741545	0.3	0	0	0	182.257605336141	182.357607506216	0.100002170074731	0.300004071556032
47087	100	367	2	87	2	2	90	1	2	0	1	112.5	67.5	0.102235148544929	2.87496749156294	0.166666666666667	0	0	0	182.524300138466	182.624281584751	0.0999814462848008	0.166692632250488
47170.25	100	368	2	88	2	2	90	1	2	0	2	67.5	112.5	-1.98614700405116	-2.87870184296756	0.233333333333333	0	0	0	182.857622256503	182.957622475922	0.100000219419599	0.233340671751648
47237	100	369	2	89	2	2	90	1	2	0	2	157.5	22.5	2.0507175544016	2.7856293474263	0.166666666666667	0	0	0	183.124320716131	183.224282169715	0.0999614535830915	0.166698240209371
47337	100	370	2	90	2	2	90	1	2	0	1	112.5	67.5	-1.92895970311828	-0.0886558149198708	0.3	0	0	0	183.52432768885	183.624307916034	0.0999802271835506	0.300045519135892
47424.5	100	371	2	91	2	2	90	1	2	0	2	67.5	112.5	-0.83056659927776	1.69330378618453	0.25	0	0	0	183.874303954188	183.974320509005	0.100016554817557	0.249996038153768
47478.5	100	372	2	92	2	2	90	1	2	0	2	67.5	22.5	3.06084085104053	2.50662885246558	0.116666666666667	0	0	0	184.091008521151	184.190974119585	0.0999655984342098	0.11668801214546
47553.5	100	373	2	93	2	2	90	1	2	0	2	157.5	22.5	-1.6027163700481	-1.77592425928268	0.2	0	0	0	184.391017225105	184.490997452289	0.0999802271835506	0.200043105520308
47612	100	374	2	94	2	2	90	1	2	0	1	22.5	67.5	-2.62354591465284	-1.42238176196106	0.133333333333333	0	0	0	184.624356190208	184.724339830689	0.0999836404807866	0.13335873791948
47703.5	100	375	2	95	2	2	90	1	2	0	2	67.5	22.5	2.55185956492348	-1.20577846814093	0.266666666666667	0	0	0	184.991035120562	185.091000231449	0.099965110886842	0.266695289872587
47791	100	376	2	96	2	2	90	1	2	0	1	22.5	157.5	1.28603227585932	-1.22347035533603	0.25	0	0	0	185.341044543777	185.441006241366	0.099961697589606	0.2500443123281
47870.25	100	377	2	97	2	2	90	1	2	0	1	22.5	157.5	-0.881276504154355	-0.930100110571745	0.216666666666667	0	0	0	185.657719341572	185.757700299844	0.0999809582717717	0.216713100206107
47941	100	378	2	98	2	2	90	1	2	0	2	157.5	112.5	-2.85047902354402	1.54664406708457	0.183333333333333	0	0	0	185.941062439699	186.041025355924	0.0999629162251949	0.18336213985458
47995.25	100	379	2	99	2	2	90	1	2	0	1	112.5	67.5	1.83087412824171	-0.416161142391414	0.116666666666667	0	0	0	186.157707760576	186.257713099942	0.100005339365453	0.116682404652238
48078.5	100	380	2	100	2	2	90	1	2	0	2	67.5	22.5	-1.39161189750704	2.05051027444834	0.233333333333333	0	0	0	186.491075958591	186.591041313484	0.0999653548933566	0.233362858649343
48137	100	381	2	101	2	2	90	1	2	0	2	67.5	22.5	-3.11990622857728	0.841703796122971	0.133333333333333	0	0	0	186.724416386802	186.824378328398	0.0999619415961206	0.133375073317438
48228.5	100	382	2	102	2	2	90	1	2	0	2	157.5	112.5	-1.32394829616312	2.66346716668264	0.266666666666667	0	0	0	187.091087271459	187.191074081231	0.099986809771508	0.266708943061531
48291.25	100	383	2	103	2	2	90	1	2	3	2	157.5	22.5	-0.461068626570388	-2.86774051487578	0.15	0	0	0	187.341097206809	187.441080847289	0.0999836404807866	0.150023125577718
48370.25	100	384	2	104	2	2	90	1	2	3	1	22.5	67.5	0.0683938220989035	-1.71165727421119	0.216666666666667	0	0	0	187.657771029044	187.75775662018	0.0999855911359191	0.216690181754529
48457.75	100	385	2	105	2	2	90	1	2	3	2	67.5	112.5	-0.361938850515831	-0.166127081206112	0.25	0	0	0	188.007785084657	188.107751902193	0.09996681753546	0.250028464477509
48553.75	100	386	2	106	2	2	90	1	2	2	-1	135	90	-1.76702282035844	-0.79220102666764	0.283333333333333	0	0	0	188.391112554353	188.491097901482	0.0999853471294045	0.283360652159899
48645.25	100	387	2	107	2	2	90	1	2	3	1	112.5	67.5	-2.30774282417661	1.51388973122969	0.266666666666667	0	0	0	188.75778929051	188.857774150092	0.0999848595820367	0.266691389027983
48720.25	100	388	2	108	2	2	90	1	2	3	2	67.5	22.5	2.96139343064083	2.66629818391016	0.2	0	0	0	189.057798726019	189.15778846154	0.0999897355213761	0.200024575926363
48791.25	100	389	2	109	2	2	90	1	2	3	2	157.5	112.5	-0.947036909257725	-1.68727511683164	0.183333333333333	0	0	0	189.341139385942	189.441126195714	0.099986809771508	0.183350924402475
48845.25	100	390	2	110	2	2	90	1	2	3	1	22.5	157.5	1.90577222235737	0.392514372294648	0.116666666666667	0	0	0	189.557819327805	189.657801017631	0.099981689825654	0.116693132091314
48895.25	100	391	2	111	2	2	90	1	2	0	2	157.5	22.5	-1.13209365278006	-1.20242084455696	0.1	0	0	0	189.757832444739	189.857808527071	0.0999760823324323	0.100031427107751
48945.25	100	392	2	112	2	2	90	1	2	0	1	22.5	157.5	-0.113513295053841	3.1325749446738	0.1	0	0	0	189.957837759983	190.057814085856	0.0999763258732855	0.100029232911766
49016.25	100	393	2	113	2	2	90	1	2	0	2	67.5	22.5	-1.62896352161523	1.89871030912627	0.183333333333333	0	0	0	190.241175737698	190.341155477334	0.0999797396361828	0.183361651841551
49116.25	100	394	2	114	2	2	90	1	2	0	1	22.5	157.5	0.747097214765768	-0.790179834747538	0.3	0	0	0	190.641194657423	190.741165375803	0.0999707183800638	0.300039180088788
49203.75	100	395	2	115	2	2	90	1	2	0	2	67.5	22.5	0.694812633949108	2.6094063652226	0.25	0	0	0	190.991200423334	191.091176018119	0.0999755947850645	0.250035047531128
49287	100	396	2	116	2	2	90	1	2	0	2	157.5	112.5	3.0677207815264	1.16746611330473	0.233333333333333	0	0	0	191.324540827423	191.424522029702	0.0999812022782862	0.233364809304476
49345.25	100	397	2	117	2	2	90	1	2	0	2	67.5	112.5	-0.824407351382465	0.951099738169034	0.133333333333333	0	0	0	191.557848828845	191.657866115216	0.10001728637144	0.133326799143106
49416.25	100	398	2	118	2	2	90	1	2	0	1	22.5	157.5	0.648034974738756	-2.84911089574651	0.183333333333333	0	0	0	191.841222403105	191.941199216526	0.0999768134206533	0.183356287889183
49512	100	399	2	119	2	2	90	1	2	0	2	157.5	22.5	1.0341298474534	-2.89948602215904	0.283333333333333	0	0	0	192.224563038442	192.324548141565	0.09998510312289	0.283363821916282
49570.25	100	400	2	120	2	2	90	1	2	0	1	112.5	67.5	0.710222513182161	-2.14319202096171	0.133333333333333	0	0	0	192.457896152511	192.557879792526	0.0999836400151253	0.133348010946065
49670.25	100	401	2	121	2	2	90	1	2	0	2	67.5	112.5	-1.67056657991759	0.0962258758546155	0.3	0	0	0	192.857910195831	192.957875550259	0.0999653544276953	0.300030403304845
49766.25	100	402	2	122	2	2	90	1	2	0	1	112.5	157.5	1.39716897236998	-3.06261467548518	0.283333333333333	0	0	0	193.241249368526	193.341226669494	0.0999773009680212	0.283373818267137
49828.75	100	403	2	123	2	2	90	1	2	0	2	157.5	112.5	-2.48836989772541	-2.86127155308279	0.15	0	0	0	193.49125930341	193.591237336397	0.0999780329875648	0.150032633915544
49920.25	100	404	2	124	2	2	90	1	2	0	2	67.5	112.5	-0.108919484887723	-1.49498557803027	0.266666666666667	0	0	0	193.85795627581	193.957918460947	0.0999621851369739	0.266718939412385
49999.5	100	405	2	125	2	2	90	1	2	0	2	67.5	112.5	-2.14254693645958	2.42801626259222	0.216666666666667	0	0	0	194.174613519106	194.274591795634	0.0999782765284181	0.21669505815953
50099.5	100	406	2	126	2	2	90	1	2	0	1	22.5	67.5	2.42206699881894	-0.221415068306575	0.3	0	0	0	194.574620979838	194.674612178467	0.0999911986291409	0.300029184203595
50162	100	407	2	127	2	2	90	1	2	0	2	67.5	112.5	0.755101330353741	-1.68911268025193	0.15	0	0	0	194.824621162843	194.924617724959	0.0999965621158481	0.150008984375745
50249.5	100	408	2	128	2	2	90	1	2	0	2	157.5	112.5	-0.792288269334124	1.57945278539741	0.25	0	0	0	195.174647652544	195.274621053133	0.0999734005890787	0.250029927585274
50312	100	409	2	129	2	2	90	1	2	0	1	22.5	67.5	1.37450148753083	-0.296779009561505	0.15	0	0	0	195.424650761299	195.524617090821	0.0999663295224309	0.150029708165675
50374.5	100	410	2	130	2	2	90	1	2	0	1	22.5	157.5	3.04791997077928	-1.07872436937958	0.15	0	0	0	195.674660208635	195.774637997616	0.0999777889810503	0.150043117813766
50441.25	100	411	2	131	2	2	90	1	2	0	2	67.5	22.5	0.789053989715528	-0.103382169462432	0.166666666666667	0	0	0	195.94133428717	196.041314270347	0.099979983177036	0.166696289554238
50512	100	412	2	132	2	2	90	1	2	3	1	22.5	157.5	-1.8874363021654	0.424002383521278	0.183333333333333	0	0	0	196.224678360391	196.324651516974	0.0999731565825641	0.183364090044051
50599.5	100	413	2	133	2	2	90	1	2	3	2	67.5	112.5	-2.28266650402597	0.711236353259309	0.25	0	0	0	196.574683882762	196.674668985885	0.09998510312289	0.250032365787774
50678.75	100	414	2	134	2	2	90	1	2	3	1	22.5	67.5	0.182170483542692	-2.19029518387532	0.216666666666667	0	0	0	196.891362824943	196.991336225532	0.0999734005890787	0.21669383905828
50745.25	100	415	2	135	2	2	90	1	2	3	2	157.5	112.5	0.757808886306622	2.71262454898184	0.166666666666667	0	0	0	197.15803032089	197.258011766709	0.0999814458191395	0.166694095358253
52266.25	100	416	3	0	2	1	0	1	1	3	2	67.5	22.5	-0.87174733265486	-2.89072030432807	0.1	0	0	0	203.241529749241	203.34149729833	0.0999675490893424	-1
52353.75	100	417	3	1	2	1	0	1	1	3	2	157.5	112.5	-1.00097047510757	2.02862267292663	0.25	0	0	0	203.591559652705	203.691527932882	0.0999682801775634	0.250062354374677
52445.5	100	418	3	2	2	1	0	1	1	3	1	22.5	157.5	-2.66080808787321	-1.79188863368858	0.266666666666667	0	0	0	203.958199329674	204.058195404243	0.0999960745684803	0.266671396791935
52520.5	100	419	3	3	2	1	0	1	1	3	1	112.5	157.5	1.50361931700026	1.02445108525264	0.2	0	0	0	204.258223149925	204.358188260812	0.099965110886842	0.200027745682746
52574.5	100	420	3	4	2	1	0	1	1	0	2	67.5	22.5	-1.12262362722239	1.25446241763755	0.116666666666667	0	0	0	204.474864082411	204.574848941993	0.0999848595820367	0.116675821598619
52641.25	100	421	3	5	2	1	0	1	1	0	1	22.5	157.5	1.83768999949809	1.73807350015394	0.166666666666667	0	0	0	204.741576195229	204.841550814454	0.0999746192246675	0.166727253235877
52695.5	100	422	3	6	2	1	0	1	1	0	2	157.5	112.5	-3.0654769992501	1.10901672268543	0.116666666666667	0	0	0	204.958225417417	205.058222223539	0.0999968061223626	0.11667460296303
52766.25	100	423	3	7	2	1	0	1	1	0	1	22.5	67.5	-3.09601204345149	0.522086645544491	0.183333333333333	0	0	0	205.241581680719	205.341550204903	0.099968524184078	0.183359457179904
52845.5	100	424	3	8	2	1	0	1	1	0	2	157.5	112.5	-1.02383040805337	0.786622135477874	0.216666666666667	0	0	0	205.558257941622	205.658240850549	0.0999829089269042	0.2167077367194
52928.75	100	425	3	9	2	1	0	1	1	0	2	157.5	22.5	1.58048673466498	2.12661222490509	0.233333333333333	0	0	0	205.891602977645	205.991563212126	0.0999602344818413	0.233362127095461
52978.75	100	426	3	10	2	1	0	1	1	0	2	157.5	112.5	1.76864307741868	-3.13107393097221	0.1	0	0	0	206.09161146218	206.191596077755	0.0999846155755222	0.100048250053078
53058	100	427	3	11	2	1	0	1	1	0	1	112.5	157.5	0.39468828464628	1.70290338762654	0.216666666666667	0	0	0	206.408282602672	206.50826185476	0.099979252088815	0.21668652491644
53112	100	428	3	12	2	1	0	1	1	0	1	112.5	67.5	-1.23022852444987	2.4139737243774	0.116666666666667	0	0	0	206.624957668595	206.724932775833	0.0999751072376966	0.116695813834667
53203.75	100	429	3	13	2	1	0	1	1	0	2	157.5	22.5	-3.03456811034144	1.48123884148358	0.266666666666667	0	0	0	206.991627334151	207.091592445038	0.099965110886842	0.266694558318704
53299.5	100	430	3	14	2	1	0	1	1	0	2	67.5	22.5	-2.56026442797341	-2.89744746701058	0.283333333333333	0	0	0	207.374975527637	207.474943320267	0.0999677926301956	0.283383082598448
53378.75	100	431	3	15	2	1	0	1	1	0	2	67.5	22.5	-2.31707455479304	2.58804642186807	0.216666666666667	0	0	0	207.691648618784	207.791614461225	0.0999658424407244	0.216705298516899
53441.25	100	432	3	16	2	1	0	1	1	0	1	22.5	67.5	-2.22076468914985	-1.3937929519351	0.15	0	0	0	207.941654409282	208.041637805756	0.099983396474272	0.150039948057383
53508	100	433	3	17	2	1	0	1	1	0	1	22.5	67.5	1.16539124481502	0.441940655616813	0.166666666666667	0	0	0	208.208312639967	208.30831066519	0.0999980252236128	0.166674834210426
53595.5	100	434	3	18	2	1	0	1	1	0	2	67.5	22.5	2.03141012478756	2.21927463679273	0.25	0	0	0	208.558338642586	208.658330572303	0.0999919297173619	0.250027977395803
53649.5	100	435	3	19	2	1	0	1	1	0	1	22.5	157.5	-2.40226222117884	-1.5892802666709	0.116666666666667	0	0	0	208.775012001861	208.874995398335	0.099983396474272	0.116681429557502
53712	100	436	3	20	2	1	0	1	1	0	1	22.5	157.5	-2.58520841184705	0.322553793310028	0.15	0	0	0	209.02500608936	209.124983390793	0.0999773014336824	0.150010691024363
53778.75	100	437	3	21	2	1	0	1	1	0	1	112.5	67.5	-2.4430649865251	2.17318874897244	0.166666666666667	0	0	0	209.291694308631	209.391681606416	0.0999872977845371	0.166710917837918
53866.25	100	438	3	22	2	1	0	1	1	0	1	112.5	67.5	-1.10116970122724	-1.01146822084294	0.25	0	0	0	209.641672280617	209.741655433085	0.0999831524677575	0.249990674201399
53933	100	439	3	23	2	1	0	1	1	0	2	67.5	22.5	-2.60330868038723	-2.75995608231508	0.166666666666667	0	0	0	209.908382930327	210.008358037565	0.0999751072376966	0.166727497242391
53983	100	440	3	24	2	1	0	1	1	0	2	67.5	22.5	2.92123696492889	-0.617000370855292	0.1	0	0	0	210.108384588268	210.20836359635	0.0999790080823004	0.100026550702751
54074.5	100	441	3	25	2	1	0	1	1	0	2	67.5	112.5	0.726293054023692	1.29348275317519	0.266666666666667	0	0	0	210.475057667121	210.575028141961	0.0999704748392105	0.266694070771337
54174.5	100	442	3	26	2	1	0	1	1	3	1	112.5	157.5	1.64032634633915	-0.789132659125388	0.3	0	0	0	210.87507049134	210.975054131821	0.0999836404807866	0.30004234937951
54270.5	100	443	3	27	2	1	0	1	1	3	2	67.5	22.5	-0.391565535554466	0.718907488826579	0.283333333333333	0	0	0	211.258410883136	211.358396717813	0.0999858346767724	0.283356751315296
54337	100	444	3	28	2	1	0	1	1	3	1	112.5	67.5	-0.536234306814015	-0.043034540426544	0.166666666666667	0	0	0	211.525089350063	211.625069333706	0.0999799836426973	0.166692632250488
54399.5	100	445	3	29	2	1	0	1	1	2	-1	45	0	-1.91435759063394	-2.51577782862214	0.15	0	0	0	211.775095384568	211.875074880198	0.0999794956296682	0.150026050861925
54470.5	100	446	3	30	2	1	0	1	1	3	2	157.5	22.5	-2.59911943325859	0.88317578165399	0.183333333333333	0	0	0	212.058402154595	212.15841919696	0.100017042364925	0.183327274397016
54545.5	100	447	3	31	2	1	0	1	1	3	2	157.5	112.5	-0.677032636810427	1.01866660931849	0.2	0	0	0	212.358446942642	212.458427413367	0.0999804707244039	0.200027745682746
54599.5	100	448	3	32	2	1	0	1	1	3	1	22.5	67.5	1.24310671854054	1.44278996243679	0.116666666666667	0	0	0	212.575113475323	212.675098090898	0.0999846155755222	0.116686061955988
54649.5	100	449	3	33	2	1	0	1	1	3	1	22.5	157.5	-2.08973124268554	-0.654898792021353	0.1	0	0	0	212.775122203398	212.875105356332	0.0999831529334188	0.10002411250025
54733	100	450	3	34	2	1	0	1	1	0	1	112.5	157.5	-1.85475390933481	-1.44921091995013	0.233333333333333	0	0	0	213.108438713942	213.20841699047	0.0999782765284181	0.233333357609808
54816.25	100	451	3	35	2	1	0	1	1	0	1	22.5	157.5	-1.87569254237856	-0.938917328321712	0.233333333333333	0	0	0	213.44177692337	213.541758369654	0.0999814462848008	0.233359932899475
54878.75	100	452	3	36	2	1	0	1	1	0	2	67.5	112.5	-2.02918097327337	-2.96601087470772	0.15	0	0	0	213.691780032124	213.7917646477	0.0999846155755222	0.150021662469953
54970.5	100	453	3	37	2	1	0	1	1	0	1	112.5	67.5	-1.10847915578103	-2.05057867816392	0.266666666666667	0	0	0	214.058490170166	214.158468934242	0.0999787640757859	0.266725522466004
55066.25	100	454	3	38	2	1	0	1	1	0	1	22.5	67.5	2.06853127162324	-1.13556956367731	0.283333333333333	0	0	0	214.441831049509	214.541808594484	0.0999775449745357	0.283362115267664
55128.75	100	455	3	39	2	1	0	1	1	0	2	157.5	112.5	0.793111503603641	2.11242437167255	0.15	0	0	0	214.691840740852	214.791822918225	0.0999821773730218	0.150032146368176
55228.75	100	456	3	40	2	1	0	1	1	0	2	157.5	112.5	1.17385155043394	0.203145688908435	0.3	0	0	0	215.091851126868	215.191833792254	0.0999826653860509	0.300028208643198
55287.25	100	457	3	41	2	1	0	1	1	0	2	67.5	22.5	2.30900704496599	-1.57634572859118	0.133333333333333	0	0	0	215.325188873336	215.425174708012	0.0999858346767724	0.13335508108139
55370.5	100	458	3	42	2	1	0	1	1	0	1	22.5	67.5	0.789053234238083	2.56065396282357	0.233333333333333	0	0	0	215.658520743717	215.7585126739	0.0999919301830232	0.233346035704017
55462.25	100	459	3	43	2	1	0	1	1	0	1	22.5	157.5	2.62812922598564	-1.28842708137996	0.266666666666667	0	0	0	216.025212352164	216.1251616152	0.0999492630362511	0.266699678264558
55516.25	100	460	3	44	2	1	0	1	1	0	2	67.5	112.5	2.29560902889524	-2.03505297269901	0.116666666666667	0	0	0	216.241850846447	216.341831561178	0.0999807147309184	0.11668923124671
55566.25	100	461	3	45	2	1	0	1	1	0	1	112.5	67.5	-2.90332622084283	-2.28896107569232	0.1	0	0	0	216.441858599894	216.541869059205	0.100010459311306	0.10002703871578
55645.5	100	462	3	46	2	1	0	1	1	0	1	22.5	157.5	-0.789468835065802	2.34885979621792	0.216666666666667	0	0	0	216.758571431972	216.858548245393	0.0999768134206533	0.216702372767031
55745.5	100	463	3	47	2	1	0	1	1	0	1	112.5	67.5	-0.913257318052874	-2.69296631709159	0.3	0	0	0	217.15858011134	217.258558631875	0.0999785205349326	0.300031865946949
55816.25	100	464	3	48	2	1	0	1	1	0	2	67.5	112.5	1.68763628739661	-0.721340905417088	0.183333333333333	0	0	0	217.44190224167	217.541904899292	0.100002657622099	0.183343609794974
55874.75	100	465	3	49	2	1	0	1	1	0	1	22.5	67.5	-0.530112052119254	-1.26630171581147	0.133333333333333	0	0	0	217.675258029718	217.775239476003	0.0999814462848008	0.133353130426258
55970.5	100	466	3	50	2	1	0	1	1	0	1	22.5	157.5	-1.17231760018393	-0.130189934935301	0.283333333333333	0	0	0	218.058608905412	218.158583768643	0.0999748632311821	0.283369429409504
56028.75	100	467	3	51	2	1	0	1	1	0	1	112.5	67.5	1.61781361494791	2.12325851549902	0.133333333333333	0	0	0	218.291936655529	218.391904935706	0.0999682801775634	0.133352886885405
56095.5	100	468	3	52	2	1	0	1	1	0	2	67.5	112.5	0.706929211439962	2.51408177281438	0.166666666666667	0	0	0	218.558639747091	218.658596324734	0.0999565776437521	0.166734811384231
56178.75	100	469	3	53	2	1	0	1	1	0	1	112.5	67.5	-0.915233749875735	1.70518729715125	0.233333333333333	0	0	0	218.891936996952	218.991941117216	0.100004120264202	0.233340672217309
56228.75	100	470	3	54	2	1	0	1	1	0	1	112.5	157.5	0.524015351744874	1.44378847694674	0.1	0	0	0	219.09196010977	219.191928877961	0.0999687681905925	0.100018992554396
56295.5	100	471	3	55	2	1	0	1	1	0	1	112.5	157.5	3.13620065516008	-0.813346188548286	0.166666666666667	0	0	0	219.3586410149	219.458619779442	0.0999787645414472	0.166712136939168
56370.5	100	472	3	56	2	1	0	1	1	0	1	22.5	157.5	2.52521065098433	2.44226315249936	0.2	0	0	0	219.658617780078	219.758592643309	0.0999748632311821	0.199998000636697
56441.25	100	473	3	57	2	1	0	1	1	0	2	157.5	112.5	2.70719881895501	2.74850839082974	0.183333333333333	0	0	0	219.94195307605	220.041969386861	0.100016310811043	0.183360432740301
56537.25	100	474	3	58	2	1	0	1	1	0	2	157.5	112.5	-1.29004738940417	-1.24081631718493	0.283333333333333	0	0	0	220.325319799129	220.425300269853	0.0999804707244039	0.283350412268192
56587.25	100	475	3	59	2	1	0	1	1	0	2	157.5	22.5	-0.792799094832712	1.43000473510495	0.1	0	0	0	220.525311460719	220.625313630793	0.100002170074731	0.100011190865189
56662.25	100	476	3	60	2	1	0	1	1	0	2	67.5	22.5	1.79239657071537	0.350716596929669	0.2	0	0	0	220.825339181814	220.925294540357	0.0999553585425019	0.200025551021099
56737.25	100	477	3	61	2	1	0	1	1	0	1	112.5	67.5	-3.01806303470871	-1.49999441591286	0.2	0	0	0	221.125346667133	221.225329819601	0.0999831524677575	0.200052126776427
56795.5	100	478	3	62	2	1	0	1	1	0	2	157.5	22.5	1.50678689035976	2.11664208870437	0.133333333333333	0	0	0	221.358666371088	221.458669028711	0.100002657622099	0.133336551487446
56845.5	100	479	3	63	2	1	0	1	1	0	2	67.5	112.5	1.77392727770292	-2.69617862735561	0.1	0	0	0	221.558693385217	221.658673124854	0.0999797396361828	0.100024356506765
56920.5	100	480	3	64	2	1	0	1	1	0	2	157.5	22.5	-1.95621989723503	0.0429234017408264	0.2	0	0	0	221.858702820726	221.958706209902	0.100003389175981	0.200029695872217
57008	100	481	3	65	2	1	0	1	1	0	1	112.5	157.5	1.75946934930882	-2.59506080427556	0.25	0	0	0	222.208693470806	222.308690032922	0.0999965621158481	0.249987260904163
57108	100	482	3	66	2	1	0	1	1	0	2	67.5	112.5	0.890027735644614	-2.32112212760563	0.3	0	0	0	222.608722873963	222.708687253762	0.0999643797986209	0.300032841041684
57208	100	483	3	67	2	1	0	1	1	0	1	112.5	157.5	-0.717968718153804	0.192037223750178	0.3	0	0	0	223.008733747993	223.108717876021	0.0999841280281544	0.300046494230628
57274.75	100	484	3	68	2	1	0	1	1	0	2	157.5	22.5	0.424681615656023	-2.83041372666329	0.166666666666667	0	0	0	223.27541514067	223.375387322158	0.0999721814878285	0.166697264648974
57366.25	100	485	3	69	2	1	0	1	1	0	1	112.5	157.5	0.626734005780212	-1.5811382430657	0.266666666666667	0	0	0	223.642084075138	223.742036019918	0.0999519447796047	0.266696752980351
57424.75	100	486	3	70	2	1	0	1	1	0	2	157.5	112.5	-1.6864781815514	2.16631193501917	0.133333333333333	0	0	0	223.875393783208	223.97537474148	0.0999809582717717	0.133357763290405
57512.25	100	487	3	71	2	1	0	1	1	0	2	157.5	22.5	1.14114638279763	-2.13085568507732	0.25	0	0	0	224.225406863727	224.325387821998	0.0999809582717717	0.250032122246921
57562.25	100	488	3	72	2	1	0	1	1	0	1	22.5	157.5	-2.7185620757961	-2.64701757320497	0.1	0	0	0	224.425409009214	224.525391430128	0.0999824209138751	0.100021187216043
57624.75	100	489	3	73	2	1	0	1	1	0	2	157.5	22.5	2.31727991545341	0.767606855182704	0.15	0	0	0	224.675416018348	224.775430866517	0.100014848168939	0.150024588219821
57703.75	100	490	3	74	2	1	0	1	1	0	2	67.5	112.5	-1.75773979614323	-1.42655793302748	0.216666666666667	0	0	0	224.992117147893	225.092106395867	0.0999892479740083	0.216686281375587
57778.75	100	491	3	75	2	1	0	1	1	0	1	22.5	67.5	1.19538846090796	-3.140521134919	0.2	0	0	0	225.292130971793	225.392085354775	0.099954382982105	0.200024575926363
57845.5	100	492	3	76	2	1	0	1	1	0	2	157.5	112.5	-1.92896839255193	-1.64772687146609	0.166666666666667	0	0	0	225.558801637031	225.65876528481	0.0999636477790773	0.166716282255948
57941.25	100	493	3	77	2	1	0	1	1	0	1	112.5	67.5	-2.78010570433914	-0.804014657633458	0.283333333333333	0	0	0	225.942146904767	226.042127619497	0.0999807147309184	0.283381619956344
57999.75	100	494	3	78	2	1	0	1	1	0	1	112.5	157.5	-2.5013003607176	-0.151875066909097	0.133333333333333	0	0	0	226.175468559377	226.275459270459	0.099990711081773	0.133340939879417
58070.5	100	495	3	79	2	1	0	1	1	0	1	112.5	157.5	1.16786598652019	1.58211343317116	0.183333333333333	0	0	0	226.458819703199	226.558802124579	0.0999824213795364	0.183360432740301
58149.75	100	496	3	80	2	1	0	1	1	0	1	22.5	67.5	2.34375904453878	-0.450485069564936	0.216666666666667	0	0	0	226.775500840042	226.875480823219	0.099979983177036	0.216698715463281
58208	100	497	3	81	2	1	0	1	1	0	2	67.5	112.5	-2.68618549052841	1.48274279096073	0.133333333333333	0	0	0	227.008840780705	227.108821738977	0.0999809582717717	0.133359957486391
58308	100	498	3	82	2	1	0	1	1	0	1	22.5	157.5	-0.46714064666481	-2.71402390991473	0.3	0	0	0	227.408849460073	227.508813839406	0.0999643793329597	0.30002772109583
58387.25	100	499	3	83	2	1	0	1	1	0	2	157.5	22.5	2.16268368645123	-2.78444613683015	0.216666666666667	0	0	0	227.725532059558	227.825514237396	0.0999821778386831	0.216718220151961
58449.75	100	500	3	84	2	1	0	1	1	3	1	112.5	157.5	-2.36949596641281	-1.94899311143967	0.15	0	0	0	227.975525171962	228.075521734543	0.0999965625815094	0.150010934565216
58520.5	100	501	3	85	2	1	0	1	1	3	1	112.5	67.5	-0.400733868277228	-0.203487351666656	0.183333333333333	0	0	0	228.258878266439	228.358860199805	0.0999819333665073	0.183356531895697
58612.25	100	502	3	86	2	1	0	1	1	3	2	157.5	112.5	-1.16449424225176	-0.781109162601977	0.266666666666667	0	0	0	228.625541104935	228.725522063673	0.099980958737433	0.266680905129761
58670.5	100	503	3	87	2	1	0	1	1	1	-1	0	45	-2.08624788899154	-0.162534737481296	0.133333333333333	0	0	0	228.858890310396	228.958870293573	0.099979983177036	0.133368246722966
58724.75	100	504	3	88	2	1	0	1	1	3	2	157.5	22.5	2.48299452939397	-0.589070015250364	0.116666666666667	0	0	0	229.075562938116	229.175547066145	0.0999841280281544	0.116692644543946
58808	100	505	3	89	2	1	0	1	1	3	2	67.5	22.5	1.27659423151477	2.55371105115575	0.233333333333333	1	0.442161655053496	1	229.408902366646	229.508885032032	0.0999826653860509	0.233355300500989
58887.25	100	506	3	90	2	1	0	1	1	3	2	67.5	112.5	-2.97838070929667	-0.733800364930921	0.216666666666667	0	0	0	229.725584478583	229.825550077483	0.0999655988998711	0.216699446551502
58983	100	507	3	91	2	1	0	1	1	3	1	22.5	157.5	1.26524597798262	-1.0439355199883	0.283333333333333	0	0	0	230.10893194098	230.208910705056	0.0999787640757859	0.283381863497198
59079	100	508	3	92	2	1	0	1	1	0	2	157.5	22.5	-2.38257342701745	-2.07780418077682	0.283333333333333	0	0	0	230.492275989614	230.592242319603	0.0999663299880922	0.283365284558386
59141.5	100	509	3	93	2	1	0	1	1	0	1	112.5	157.5	0.151244588374805	-2.14300678020379	0.15	0	0	0	230.742281780113	230.842262494843	0.0999807147309184	0.150039460510015
59216.5	100	510	3	94	2	1	0	1	1	0	2	67.5	112.5	1.79730190483821	-1.94352992266758	0.2	0	0	0	231.042293166276	231.142270223703	0.0999770574271679	0.200030671432614
59266.5	100	511	3	95	2	1	0	1	1	0	1	22.5	67.5	-0.355036592258448	1.51520950330144	0.1	0	0	0	231.242297018413	231.342276026029	0.0999790076166391	0.100026794709265
59366.5	100	512	3	96	2	1	0	1	1	0	2	157.5	22.5	-1.0367933828551	0.929590766392961	0.3	0	0	0	231.642290581483	231.742258862127	0.0999682806432247	0.300014555454254
59441.5	100	513	3	97	2	1	0	1	1	0	2	157.5	112.5	-1.18887856636126	-1.68702494116243	0.2	0	0	0	231.942278805654	232.042262689676	0.0999838840216398	0.200019943527877
59524.75	100	514	3	98	2	1	0	1	1	0	2	67.5	22.5	1.59348767642378	-3.01633539983486	0.233333333333333	0	0	0	232.275614333339	232.375632594805	0.100018261466175	0.2333516436629
59604	100	515	3	99	2	1	0	1	1	0	1	112.5	67.5	2.30327330955773	1.94434100378732	0.216666666666667	0	0	0	232.592307416722	232.692305929493	0.0999985127709806	0.216674821916968
59666.5	100	516	3	100	2	1	0	1	1	0	1	112.5	67.5	-0.399507956317695	-1.94558508498907	0.15	0	0	0	232.842333199456	232.942315133289	0.0999819338321686	0.150027269963175
59758	100	517	3	101	2	1	0	1	1	0	2	67.5	22.5	1.8137330435743	-0.744374805403892	0.266666666666667	0	0	0	233.209009935614	233.309000890236	0.0999909546226263	0.266694802325219
59812.25	100	518	3	102	2	1	0	1	1	0	2	157.5	22.5	2.6157871410807	-2.48689719397726	0.116666666666667	0	0	0	233.425681831781	233.525645967573	0.0999641357921064	0.116680941544473
59870.5	100	519	3	103	2	1	0	1	1	0	1	22.5	157.5	-1.56221938531666	0.280981447525866	0.133333333333333	0	0	0	233.659021284897	233.759006875567	0.0999855906702578	0.133375317323953
59954	100	520	3	104	2	1	0	1	1	0	2	67.5	112.5	-0.131215482946673	0.502898811772367	0.233333333333333	0	0	0	233.99235266773	234.092328262515	0.0999755947850645	0.233345792163163
60029	100	521	3	105	2	1	0	1	1	0	1	112.5	157.5	2.64974025430907	-0.407446898266141	0.2	0	0	0	234.292376487982	234.392341354862	0.0999648668803275	0.200048225466162
60124.75	100	522	3	106	2	1	0	1	1	0	2	67.5	112.5	-1.87953419285191	2.85144476122217	0.283333333333333	0	0	0	234.675700300373	234.775700763799	0.100000463426113	0.283358945511281
60195.5	100	523	3	107	2	1	0	1	1	0	2	157.5	22.5	-2.37105233526057	-2.3029192193211	0.183333333333333	0	0	0	234.959045105148	235.059027282521	0.0999821773730218	0.183344341348857
60283	100	524	3	108	2	1	0	1	1	0	2	157.5	112.5	-2.6063972590382	2.03123319386497	0.25	0	0	0	235.309069157112	235.409051090479	0.0999819333665073	0.250041874591261
60354	100	525	3	109	2	1	0	1	1	0	2	67.5	22.5	0.532524363727769	-0.934753505173858	0.183333333333333	0	0	0	235.592412011232	235.692391750403	0.0999797391705215	0.18336092075333
60445.5	100	526	3	110	2	1	0	1	1	0	2	157.5	112.5	1.12007094410145	2.32897201115879	0.266666666666667	0	0	0	235.95907119289	236.05905068852	0.0999794956296682	0.266679442487657
60516.5	100	527	3	111	2	1	0	1	1	0	1	22.5	157.5	-2.58521859662229	-0.915694008074867	0.183333333333333	0	0	0	236.242441353388	236.342409877572	0.099968524184078	0.183390664868057
60599.75	100	528	3	112	2	1	0	1	1	0	2	157.5	112.5	-1.55213156712375	-0.679967439369035	0.233333333333333	0	0	0	236.575775661971	236.675753694959	0.0999780329875648	0.233365784399211
60687.25	100	529	3	113	2	1	0	1	1	0	1	22.5	157.5	-0.357290859744652	-0.649608902713642	0.25	0	0	0	236.925785085186	237.02574166283	0.0999565776437521	0.250031390227377
60787.25	100	530	3	114	2	1	0	1	1	0	1	22.5	67.5	2.00226461948521	2.49715445141833	0.3	0	0	0	237.325771334581	237.425750342663	0.0999790080823004	0.300029671750963
60849.75	100	531	3	115	2	1	0	1	1	0	2	67.5	22.5	-1.68102395151244	-1.71423471895313	0.15	0	0	0	237.575777125079	237.675756620709	0.0999794956296682	0.150026782415807
60941.5	100	532	3	116	2	1	0	1	1	0	1	22.5	67.5	0.796831335390181	-1.38104057962004	0.266666666666667	0	0	0	237.942476291675	238.042457981501	0.099981689825654	0.266719670966268
61012.25	100	533	3	117	2	1	0	1	1	0	1	112.5	67.5	-0.938673555936389	1.42563099498592	0.183333333333333	0	0	0	238.225817682687	238.325799616519	0.0999819338321686	0.183359701186419
61112.25	100	534	3	118	2	1	0	1	1	0	2	67.5	22.5	-2.08725866165419	-0.436141308163342	0.3	0	0	0	238.625803688075	238.725812440738	0.100008752662688	0.300004071556032
61199.75	100	535	3	119	2	1	0	1	1	0	1	22.5	67.5	-2.81850533471742	2.10697615457882	0.25	0	0	0	238.975843831431	239.075823570602	0.0999797391705215	0.250031390693039
61295.5	100	536	3	120	2	1	0	1	1	0	1	112.5	157.5	-0.606719068764229	2.9480228530246	0.283333333333333	0	0	0	239.359166424721	239.459164937492	0.0999985127709806	0.283342854119837
61349.75	100	537	3	121	2	1	0	1	1	0	1	22.5	67.5	-2.50021955306012	1.08234201191031	0.116666666666667	0	0	0	239.575840271544	239.675835615024	0.0999953434802592	0.116675334051251
61437.25	100	538	3	122	2	1	0	1	1	0	2	67.5	112.5	0.420636277826937	-2.89299586169143	0.25	0	0	0	239.925861397758	240.025847476441	0.0999860786832869	0.250025782734156
61491.5	100	539	3	123	2	1	0	1	1	0	1	112.5	157.5	-2.74804890135908	0.916575646558276	0.116666666666667	0	0	0	240.14251452079	240.242514008656	0.0999994878657162	0.116667044349015
61545.5	100	540	3	124	2	1	0	1	1	3	2	67.5	112.5	-0.725273323066116	2.58137321444714	0.116666666666667	0	0	0	240.359202264808	240.459169082344	0.09996681753546	0.116688256151974
61608	100	541	3	125	2	1	0	1	1	3	2	157.5	22.5	0.76173175048404	2.28163243019574	0.15	0	0	0	240.609210005961	240.709193889983	0.0999838840216398	0.15004092361778
61708	100	542	3	126	2	1	0	1	1	3	1	112.5	67.5	0.85394632867248	2.11451334408884	0.3	0	0	0	241.009214784484	241.109186234418	0.0999714499339461	0.300020894501358
61787.25	100	543	3	127	2	1	0	1	1	3	1	22.5	67.5	-0.36400188447817	-0.447890123192185	0.216666666666667	0	0	0	241.325898115523	241.425877611153	0.0999794956296682	0.216711881104857
62649.75	100	544	4	0	2	1	90	2	1	3	2	157.5	22.5	-0.136437258429495	1.46613351832764	0.25	0	0	0	244.775971636176	244.875959909055	0.0999882728792727	-1
62712.25	100	545	4	1	2	1	90	2	1	3	1	22.5	67.5	-1.89156961840059	2.54004129593315	0.15	0	0	0	245.026020824909	245.12598081585	0.0999599909409881	0.150060915853828
62812.25	100	546	4	2	2	1	90	2	1	3	2	157.5	112.5	-1.43331053660773	-0.628858830820831	0.3	0	0	0	245.426011462696	245.525992177427	0.0999807147309184	0.300030646845698
62866.5	100	547	4	3	2	1	90	2	1	3	1	112.5	67.5	-1.7181115661397	0.641317856590543	0.116666666666667	0	0	0	245.642682139762	245.7426643176	0.0999821778386831	0.116689962334931
62941.5	100	548	4	4	2	1	90	2	1	0	2	157.5	112.5	-1.6205401027715	-1.69355271754405	0.2	0	0	0	245.942693525925	246.042668632697	0.0999751067720354	0.20002920832485
62999.75	100	549	4	5	2	1	90	2	1	0	2	67.5	22.5	-0.580943300972673	-2.91482168335212	0.133333333333333	0	0	0	246.17602883419	246.276016131509	0.0999872973188758	0.133360201492906
63066.5	100	550	4	6	2	1	90	2	1	0	1	22.5	67.5	-1.6839564056502	-0.906780497815625	0.166666666666667	0	0	0	246.442690722179	246.542684115004	0.0999933928251266	0.166674590669572
63129	100	551	4	7	2	1	90	2	1	0	2	67.5	22.5	2.86558765750315	-1.05015240313715	0.15	0	0	0	246.692699681967	246.792693806347	0.099994124379009	0.150015566963702
63224.75	100	552	4	8	2	1	90	2	1	0	2	67.5	112.5	1.13164129027609	2.2090472222028	0.283333333333333	0	0	0	247.076023250818	247.176006403752	0.0999831529334188	0.283329444471747
63324.75	100	553	4	9	2	1	90	2	1	0	1	112.5	67.5	0.892191411143043	0.87091448821828	0.3	0	0	0	247.476037538145	247.576030199416	0.0999926612712443	0.300031134393066
63379	100	554	4	10	2	1	90	2	1	0	1	22.5	67.5	1.72681555547683	-2.29603562967717	0.116666666666667	0	0	0	247.692736253608	247.792719162535	0.0999829089269042	0.116706054192036
63454	100	555	4	11	2	1	90	2	1	0	1	22.5	67.5	-0.141961957392077	1.32969048259608	0.2	0	0	0	247.992719357368	248.09272494074	0.100005583371967	0.200000194832683
63554	100	556	4	12	2	1	90	2	1	0	2	157.5	112.5	2.64084918218936	-1.078051153304	0.3	0	0	0	248.392755831592	248.492729231715	0.0999734001234174	0.300030890852213
63641.5	100	557	4	13	2	1	90	2	1	0	1	112.5	67.5	1.28194867181806	-2.26910638260549	0.25	0	0	0	248.742756721098	248.842742799781	0.0999860786832869	0.250027489382774
63733.25	100	558	4	14	2	1	90	2	1	0	1	112.5	67.5	2.52371962149837	-0.0984402835699063	0.266666666666667	0	0	0	249.109436627012	249.209420023486	0.099983396474272	0.266693827230483
63783.25	100	559	4	15	2	1	90	2	1	0	2	157.5	22.5	-0.725232267890072	-2.27100860444851	0.1	0	0	0	249.309446818195	249.409428020474	0.0999812022782862	0.100026794709265
63866.5	100	560	4	16	2	1	90	2	1	0	2	67.5	22.5	0.578711696138057	2.49400118487163	0.233333333333333	0	0	0	249.642767229583	249.742776226252	0.100008996669203	0.233339209109545
63941.5	100	561	4	17	2	1	90	2	1	0	2	157.5	22.5	0.437197311777976	-1.55485959451337	0.2	0	0	0	249.94279616978	250.042785173748	0.0999890039674938	0.200019943527877
64004	100	562	4	18	2	1	90	2	1	0	1	22.5	67.5	-1.39947388340468	-2.30924030109279	0.15	0	0	0	250.192811468616	250.292784381658	0.0999729130417109	0.150026294868439
64062.25	100	563	4	19	2	1	90	2	1	0	2	157.5	112.5	1.10573076970209	-1.6315897780665	0.133333333333333	0	0	0	250.426142876036	250.526126028504	0.0999831524677575	0.133358494378626
64137.25	100	564	4	20	2	1	90	2	1	3	2	67.5	112.5	-0.348326692342431	-1.89015453265036	0.2	0	0	0	250.726153042633	250.826134244911	0.0999812022782862	0.200027014128864
64224.75	100	565	4	21	2	1	90	2	1	3	2	157.5	22.5	-2.93164900505842	-2.5657453375398	0.25	0	0	0	251.076134184375	251.176152201835	0.100018017459661	0.249999939464033
64274.75	100	566	4	22	2	1	90	2	1	3	1	112.5	157.5	-1.15572578303991	-0.789086060042073	0.1	0	0	0	251.276172657497	251.37615776062	0.09998510312289	0.100020455662161
64329	100	567	4	23	2	1	90	2	1	1	-1	90	135	2.17670821553903	0.524326503680933	0.116666666666667	0	0	0	251.492846016772	251.592811127193	0.0999651104211807	0.116688256151974
64412.25	100	568	4	24	2	1	90	2	1	3	2	67.5	22.5	-1.48389864905159	0.89998775024075	0.233333333333333	0	0	0	251.8261900777	251.926171279978	0.0999812022782862	0.233378950506449
64483.25	100	569	4	25	2	1	90	2	1	3	1	22.5	67.5	0.631839797477199	1.28104982003688	0.183333333333333	1	0.508853336796165	1	252.109530493617	252.20953339478	0.100002901162952	0.183359213639051
64574.75	100	570	4	26	2	1	90	2	1	3	2	157.5	112.5	-2.65392464200359	-1.80965799143423	0.266666666666667	0	0	0	252.476188212167	252.576163806953	0.0999755947850645	0.266654817387462
64637.25	100	571	4	27	2	1	90	2	1	3	1	22.5	157.5	1.82310269980705	-2.69013381332205	0.15	0	0	0	252.726215702016	252.826191052794	0.0999753507785499	0.15005189506337
64733.25	100	572	4	28	2	1	90	2	1	0	1	112.5	67.5	-2.01730136986881	0.936136242521694	0.283333333333333	0	0	0	253.109558775555	253.209544122685	0.0999853471294045	0.283367722760886
64820.75	100	573	4	29	2	1	90	2	1	0	1	112.5	157.5	3.03791784879847	1.42839000885266	0.25	0	0	0	253.459560884163	253.559543305542	0.0999824213795364	0.250016761478037
64874.75	100	574	4	30	2	1	90	2	1	0	1	22.5	157.5	0.703689893603527	2.60829620157048	0.116666666666667	0	0	0	253.676238632295	253.77621617727	0.0999775449745357	0.116695326752961
64924.75	100	575	4	31	2	1	90	2	1	0	1	112.5	67.5	1.90975382346597	1.77917438785493	0.1	0	0	0	253.876208838541	253.97622076096	0.100011922419071	0.0999926612712443
64995.75	100	576	4	32	2	1	90	2	1	0	1	22.5	67.5	-2.17203854531836	-1.78754127805745	0.183333333333333	0	0	0	254.159579974599	254.25956361508	0.0999836404807866	0.183359213639051
65087.25	100	577	4	33	2	1	90	2	1	0	1	22.5	157.5	2.58212664303064	-1.14488872687168	0.266666666666667	0	0	0	254.526226965711	254.626207680441	0.0999807147309184	0.266663350630552
65166.5	100	578	4	34	2	1	90	2	1	0	1	112.5	157.5	1.53909163217908	-2.59935363163732	0.216666666666667	0	0	0	254.842930289451	254.942906127777	0.0999758383259177	0.216722609009594
65266.5	100	579	4	35	2	1	90	2	1	0	2	67.5	112.5	-1.48686012595731	-0.0939090804221934	0.3	0	0	0	255.242936531082	255.342921877746	0.0999853466637433	0.300030403304845
65354	100	580	4	36	2	1	90	2	1	0	2	67.5	112.5	0.990001627069568	2.76838737513144	0.25	0	0	0	255.592945466284	255.692934714258	0.0999892479740083	0.25002358853817
65416.5	100	581	4	37	2	1	90	2	1	0	2	67.5	112.5	-3.13901557345075	-2.25330427066331	0.15	0	0	0	255.842953694984	255.942937823012	0.0999841280281544	0.1500189807266
65512.25	100	582	4	38	2	1	90	2	1	0	1	112.5	157.5	-0.503879255809038	0.14446468140707	0.283333333333333	0	0	0	256.226304082666	256.326279189903	0.0999751072376966	0.283366259653121
65574.75	100	583	4	39	2	1	90	2	1	0	1	22.5	157.5	0.275264443279239	-1.63444025819361	0.15	0	0	0	256.476305240765	256.576260599308	0.0999553585425019	0.150026050861925
65666.5	100	584	4	40	2	1	90	2	1	0	1	112.5	157.5	-0.849572901272574	-0.541640766153585	0.266666666666667	0	0	0	256.842959546484	256.942935872357	0.0999763258732855	0.266698947176337
65720.75	100	585	4	41	2	1	90	2	1	0	2	157.5	22.5	2.09783371871207	-1.03710548046962	0.116666666666667	0	0	0	257.059632661752	257.15961654624	0.0999838844873011	0.116696789395064
65774.75	100	586	4	42	2	1	90	2	1	0	2	67.5	112.5	-0.00865404835513406	-0.109920155520893	0.116666666666667	0	0	0	257.276328207925	257.376316480804	0.0999882728792727	0.116711661685258
65854	100	587	4	43	2	1	90	2	1	0	2	157.5	112.5	2.2720070749801	-0.298098893023581	0.216666666666667	0	0	0	257.593005931471	257.692988840397	0.0999829089269042	0.216689450666308
65924.75	100	588	4	44	2	1	90	2	1	0	2	67.5	112.5	-2.61316622402374	-2.19122619320499	0.183333333333333	0	0	0	257.876317821443	257.976298780181	0.099980958737433	0.183328981045634
66025	100	589	4	45	2	1	90	2	1	0	1	22.5	67.5	1.95489208619683	-1.48384333720883	0.3	0	0	0	258.276343567763	258.376341105439	0.099997537676245	0.30004478758201
66125	100	590	4	46	2	1	90	2	1	0	1	22.5	157.5	-2.97227795046193	0.201076937091338	0.3	0	0	0	258.676348346286	258.776318333577	0.0999699872918427	0.300007240846753
66204	100	591	4	47	2	1	90	2	1	0	1	112.5	67.5	-0.372960869930402	-2.73935605042348	0.216666666666667	0	0	0	258.993015342392	259.093000689521	0.0999853471294045	0.216697008814663
66270.75	100	592	4	48	2	1	90	2	1	0	2	157.5	112.5	2.98926257441726	2.04762516361926	0.166666666666667	0	0	0	259.259686982725	259.359675986692	0.0999890039674938	0.166686293203384
66350	100	593	4	49	2	1	90	2	1	0	1	22.5	157.5	-3.00567840803235	1.7964600386519	0.216666666666667	0	0	0	259.576368607115	259.676337862853	0.0999692557379603	0.216692620422691
66441.5	100	594	4	50	2	1	90	2	1	0	2	67.5	112.5	-1.3717461522902	1.77461623842136	0.266666666666667	0	0	0	259.943068992812	260.043038492091	0.0999694992788136	0.266731129959226
66512.5	100	595	4	51	2	1	90	2	1	0	2	67.5	22.5	2.58199936623453	-1.28508210966292	0.183333333333333	0	0	0	260.226411602926	260.326367936563	0.0999563336372375	0.183373110834509
66566.5	100	596	4	52	2	1	90	2	1	0	2	157.5	112.5	-2.30570565879957	2.93163140199977	0.116666666666667	0	0	0	260.44308788795	260.543040564284	0.099952676333487	0.116719951387495
66641.5	100	597	4	53	2	1	90	2	1	0	1	112.5	157.5	1.86859957822884	-0.569781670523516	0.2	0	0	0	260.743091227952	260.843055851292	0.0999646233394742	0.200050663668662
