onset	duration	total_event_number	stream_number	event_num_per_stream	timing_predictability	target_col	target_ori	n_targets	n_distractors	is_target	ori_pair_num	att_ori	unatt_ori	gabor_phase_att	gabor_phase_unatt	blank_dur	response	rt	correct	time_stimon	time_stimoff	stim_dur	ISI_dur
5916	100	0	0	0	1	1	0	2	2	3	1	112.5	157.5	2.49783076918994	0.95004352347532	0.2	0	0	0	42.4128179491963	42.5127616047394	0.0999436555430293	-1
5991	100	1	0	1	1	1	0	2	2	3	2	67.5	22.5	1.5605114929648	1.91209260655561	0.2	0	0	0	42.7127991027664	42.8127590934746	0.0999599907081574	0.200037498027086
6066	100	2	0	2	1	1	0	2	2	3	1	22.5	67.5	-2.82643929762942	-2.73911394899099	0.2	0	0	0	43.0127817189787	43.1127648719121	0.0999831529334188	0.200022625504062
6141	100	3	0	3	1	1	0	2	2	3	1	22.5	157.5	3.07102900943568	0.294154172190255	0.2	0	0	0	43.3127952993382	43.4127713814378	0.0999760820996016	0.2000304274261
6216	100	4	0	4	1	1	0	2	2	0	1	22.5	157.5	2.79260782608644	1.8099524210197	0.2	0	0	0	43.6128071728162	43.7127805731725	0.099973400356248	0.200035791378468
6291	100	5	0	5	1	1	0	2	2	0	2	67.5	112.5	-2.67975162566936	-2.61351502354886	0.2	0	0	0	43.9128144138958	44.0127912275493	0.099976813653484	0.200033840723336
6366	100	6	0	6	1	1	0	2	2	0	2	157.5	22.5	2.54815121451236	-2.62842855165262	0.2	0	0	0	44.2128192170057	44.3128011506051	0.0999819335993379	0.20002798945643
6441	100	7	0	7	1	1	0	2	2	0	1	112.5	157.5	-0.442865668875186	1.48949141764755	0.2	0	0	0	44.5128705876414	44.6128076603636	0.0999370727222413	0.200069437036291
6516	100	8	0	8	1	1	0	2	2	0	1	112.5	157.5	-0.140690294558	2.5074424451951	0.2	0	0	0	44.8128322365228	44.9128117319196	0.0999794953968376	0.200024576159194
6591	100	9	0	9	1	1	0	2	2	0	1	22.5	157.5	2.97300268575264	-2.60940744490735	0.2	0	0	0	45.1128733670339	45.2128216549754	0.0999482879415154	0.200061635114253
6666	100	10	0	10	1	1	0	2	2	0	2	157.5	22.5	-1.6103282566802	0.842751183385436	0.2	0	0	0	45.4128528139554	45.512863029493	0.100010215537623	0.200031158979982
6741	100	11	0	11	1	1	0	2	2	0	2	67.5	22.5	0.146771696479945	-2.23758090050991	0.2	0	0	0	45.7128566417377	45.812839306891	0.0999826651532203	0.199993612244725
6816	100	12	0	12	1	1	0	2	2	0	2	157.5	22.5	2.74745442612144	1.54435378132666	0.2	0	0	0	46.0128655894659	46.1128528870177	0.0999872975517064	0.200026282574981
6891	100	13	0	13	1	1	0	2	2	0	1	112.5	157.5	1.39950265948839	0.936215908518755	0.2	0	0	0	46.3128896534909	46.4128698806744	0.0999802271835506	0.200036766473204
6966	100	14	0	14	1	1	0	2	2	0	2	157.5	112.5	-0.198860603715871	-1.59938330437802	0.2	0	0	0	46.6128964070231	46.7134561697021	0.10055976267904	0.200026526348665
7041	100	15	0	15	1	1	0	2	2	0	2	157.5	112.5	3.00851977155259	-1.75646541925237	0.2	0	0	0	46.9129287607502	47.0129036239814	0.0999748632311821	0.199472591048107
7116	100	16	0	16	1	1	0	2	2	0	1	22.5	157.5	1.98985991893586	1.66726226414372	0.2	0	0	0	47.2129082074389	47.312891604146	0.0999833967071027	0.200004583457485
7191	100	17	0	17	1	1	0	2	2	3	2	67.5	112.5	0.651084340452619	0.135428966521622	0.2	0	0	0	47.5129173991736	47.6129027460702	0.0999853468965739	0.200025795027614
7266	100	18	0	18	1	1	0	2	2	3	2	67.5	22.5	-2.41844036473787	1.66321761404792	0.2	0	0	0	47.8129329297226	47.9129155948758	0.0999826651532203	0.200030183652416
7341	100	19	0	19	1	1	0	2	2	3	2	157.5	22.5	0.780673027750057	-0.663613844929993	0.2	0	0	0	48.1129572375212	48.2129228361882	0.0999655986670405	0.200041642645374
7416	100	20	0	20	1	1	0	2	2	2	-1	45	0	-0.27841619670431	-1.01904730251222	0.2	0	0	0	48.4129437550437	48.5129266639706	0.0999829089269042	0.200020918855444
7491	100	21	0	21	1	1	0	2	2	3	1	112.5	157.5	-1.86197835659596	2.94223649227783	0.2	0	0	0	48.7129517274443	48.8129619432148	0.100010215770453	0.200025063473731
7566	100	22	0	22	1	1	0	2	2	3	1	112.5	67.5	-2.81451701735919	1.08314174348681	0.2	0	0	0	49.0129665266722	49.1129433405586	0.0999768138863146	0.200004583457485
7641	100	23	0	23	1	1	0	2	2	3	1	22.5	67.5	0.176555681312804	-0.0398230883798596	0.2	0	0	0	49.3129871773999	49.4129561891314	0.0999690117314458	0.20004383684136
7716	100	24	0	24	1	1	0	2	2	3	1	22.5	157.5	-2.36042996042142	0.23461314885806	0.2	0	0	0	49.6129675994162	49.7129478265997	0.0999802271835506	0.200011410284787
7791	100	25	0	25	1	1	0	2	2	0	1	22.5	67.5	-0.358995361957437	1.38817631062199	0.2	0	0	0	49.9129943454172	50.0129809114151	0.0999865659978241	0.200046518817544
7866	100	26	0	26	1	1	0	2	2	0	2	67.5	22.5	1.05489189563509	1.30778620231582	0.2	0	0	0	50.2130032931454	50.3129847394302	0.0999814462848008	0.200022381730378
7941	100	27	0	27	1	1	0	2	2	0	1	22.5	157.5	-0.279266024163371	2.60737640304611	0.2	0	0	0	50.5129917610902	50.612970525166	0.0999787640757859	0.200007021659985
8016	100	28	0	28	1	1	0	2	2	0	1	22.5	67.5	-1.49458500605007	-0.561682000962883	0.2	0	0	0	50.8130243583582	50.9130058044102	0.0999814460519701	0.200053833192214
8091	100	29	0	29	1	1	0	2	2	0	1	22.5	67.5	0.516708127876091	2.04977719261815	0.2	0	0	0	51.1130311118905	51.2130128017161	0.099981689825654	0.200025307480246
8166	100	30	0	30	1	1	0	2	2	0	2	67.5	112.5	-0.505596502192013	1.04763586560099	0.2	0	0	0	51.4130166540854	51.512992736185	0.0999760820996016	0.200003852369264
8241	100	31	0	31	1	1	0	2	2	0	2	157.5	22.5	1.7465166041341	2.22113138623587	0.2	0	0	0	51.7130212131888	51.8130026592407	0.0999814460519701	0.200028477003798
8316	100	32	0	32	1	1	0	2	2	0	2	67.5	112.5	0.193310126780196	1.92207199961599	0.2	0	0	0	52.0130299171433	52.1130376947112	0.100007777567953	0.200027257902548
8391	100	33	0	33	1	1	0	2	2	0	2	157.5	112.5	3.1267303485842	2.09750147072209	0.2	0	0	0	52.3130649526138	52.4130198236089	0.0999548709951341	0.200027257902548
8466	100	34	0	34	1	1	0	2	2	0	2	157.5	22.5	2.84398953361808	2.44194070487485	0.2	0	0	0	52.6130461061839	52.7130519333296	0.100005827145651	0.200026282574981
8541	100	35	0	35	1	1	0	2	2	0	1	22.5	157.5	1.47205423106865	2.87635903047432	0.2	0	0	0	52.9130699264351	53.0130652696826	0.0999953432474285	0.200017993105575
8616	100	36	0	36	1	1	0	2	2	0	2	157.5	112.5	-1.64361198666396	0.881363483935136	0.2	0	0	0	53.2130620514508	53.3130449603777	0.0999829089269042	0.199996781768277
8691	100	37	0	37	1	1	0	2	2	0	1	22.5	157.5	-2.42613543308962	0.1498926163259	0.2	0	0	0	53.5130990373436	53.6130619538017	0.0999629164580256	0.200054076965898
8766	100	38	0	38	1	1	0	2	2	0	2	157.5	112.5	2.46740446031724	1.32001181535128	0.2	0	0	0	53.8130782402586	53.9130589549895	0.0999807147309184	0.200016286456957
8841	100	39	0	39	1	1	0	2	2	0	1	112.5	67.5	1.78636498351316	1.89911423809958	0.2	0	0	0	54.1130925519392	54.2130744857714	0.0999819338321686	0.200033596949652
8916	100	40	0	40	1	1	0	2	2	0	1	22.5	157.5	0.78525003868479	-0.49253310909058	0.2	0	0	0	54.4131027187686	54.513108789688	0.100006070919335	0.200028232997283
8991	100	41	0	41	1	1	0	2	2	0	1	22.5	157.5	-0.884773684119372	-0.499785765761593	0.2	0	0	0	54.7131162988953	54.8130962823052	0.0999799834098667	0.200007509207353
9066	100	42	0	42	1	1	0	2	2	0	1	112.5	67.5	-1.43563343480047	-2.22305732375816	0.2	0	0	0	55.0131242715288	55.1131042547058	0.099979983177036	0.200027989223599
9141	100	43	0	43	1	1	0	2	2	0	1	22.5	67.5	1.16263332208067	1.51570686547587	0.2	0	0	0	55.3131305375136	55.4131068636198	0.0999763261061162	0.200026282807812
9216	100	44	0	44	1	1	0	2	2	0	1	22.5	67.5	0.407718484725905	3.08510920562421	0.2	0	0	0	55.613136559492	55.7131209312938	0.0999843718018383	0.200029695872217
9291	100	45	0	45	1	1	0	2	2	0	1	22.5	157.5	0.576011526841759	-0.782116466725108	0.2	0	0	0	55.9131435570307	56.0131281726062	0.0999846155755222	0.200022625736892
9366	100	46	0	46	1	1	0	2	2	0	2	67.5	22.5	0.836295928628665	-2.08818240588386	0.2	0	0	0	56.213141045766	56.3131239546929	0.0999829089269042	0.200012873159721
9441	100	47	0	47	1	1	0	2	2	0	2	157.5	112.5	1.59184246265928	-1.85753106090826	0.2	0	0	0	56.5131653535645	56.613134365296	0.0999690117314458	0.20004139887169
9516	100	48	0	48	1	1	0	2	2	0	2	157.5	22.5	-1.94894702984423	-0.471583391648852	0.2	0	0	0	56.8131625985261	56.9131452636793	0.0999826651532203	0.200028233230114
9591	100	49	0	49	1	1	0	2	2	0	1	112.5	157.5	-1.57732433529777	-1.30674938465455	0.2	0	0	0	57.1131664263085	57.2131478723604	0.0999814460519701	0.200021162629128
9666	100	50	0	50	1	1	0	2	2	0	1	112.5	157.5	3.01417504737431	2.9515908610972	0.2	0	0	0	57.4131748864893	57.5131556012202	0.0999807147309184	0.200027014128864
9741	100	51	0	51	1	1	0	2	2	3	1	22.5	67.5	2.61205845011015	-2.76958398642659	0.2	0	0	0	57.7131852970924	57.8131586974487	0.099973400356248	0.200029695872217
9816	100	52	0	52	1	1	0	2	2	3	1	112.5	157.5	2.3799223512189	-1.20357806051745	0.2	0	0	0	58.0131998525467	58.1131744720042	0.0999746194574982	0.200041155098006
9891	100	53	0	53	1	1	0	2	2	3	1	22.5	157.5	-2.89335728796796	-2.42020311065822	0.2	0	0	0	58.3132053869776	58.4131802502088	0.0999748632311821	0.200030914973468
9966	100	54	0	54	1	1	0	2	2	1	-1	0	135	-2.75965760564128	0.929787763780906	0.2	0	0	0	58.6132026319392	58.7131987067405	0.0999960748013109	0.200022381730378
10041	100	55	0	55	1	1	0	2	2	3	2	67.5	22.5	-1.43922988900479	1.73375093173358	0.2	0	0	0	58.9132123112213	59.0131927821785	0.0999804709572345	0.200013604480773
10116	100	56	0	56	1	1	0	2	2	3	2	157.5	112.5	-0.470026402186887	-2.01418269184125	0.2	0	0	0	59.2132119943853	59.31321075093	0.0999987565446645	0.200019212206826
10191	100	57	0	57	1	1	0	2	2	3	2	67.5	112.5	0.775025631269372	-2.74987053184433	0.2	0	0	0	59.5132302069105	59.6132079958916	0.0999777889810503	0.20001945598051
10266	100	58	0	58	1	1	0	2	2	3	1	112.5	67.5	-2.49775715338708	-0.259121552511855	0.2	0	0	0	59.8132479318883	59.9132245017681	0.0999765698798001	0.200039935996756
10341	100	59	0	59	1	1	0	2	2	0	2	67.5	112.5	0.261683194416781	0.528204969291376	0.2	0	0	0	60.1132483463734	60.2132527104113	0.100004364037886	0.200023844605312
10416	100	60	0	60	1	1	0	2	2	0	2	67.5	22.5	-2.68610673101617	2.57167590049176	0.2	0	0	0	60.4132550999057	60.5132679974195	0.100012897513807	0.20000238949433
10491	100	61	0	61	1	1	0	2	2	0	1	112.5	67.5	-2.59846276317913	-2.91304401371063	0.2	0	0	0	60.7132628285326	60.8132749947254	0.100012166192755	0.199994831113145
10566	100	62	0	62	1	1	0	2	2	0	2	67.5	112.5	1.10760033050095	-2.45876179748703	0.2	0	0	0	61.0132747020107	61.113260780694	0.0999860786832869	0.199999707285315
10641	100	63	0	63	1	1	0	2	2	0	1	112.5	67.5	0.318108949183767	-1.98209308300398	0.2	0	0	0	61.3132824308705	61.4132687530946	0.0999863222241402	0.200021650176495
10716	100	64	0	64	1	1	0	2	2	0	2	157.5	22.5	0.823759666452984	-1.77585223905518	0.2	0	0	0	61.6133028378244	61.7132762381807	0.099973400356248	0.20003408472985
10791	100	65	0	65	1	1	0	2	2	0	1	112.5	67.5	-0.796810961546266	-1.66247561923162	0.2	0	0	0	61.913304471178	62.0133156620432	0.100011190865189	0.200028232997283
10866	100	66	0	66	1	1	0	2	2	0	2	157.5	22.5	-0.134739747555425	1.36498264092537	0.2	0	0	0	62.2133102496155	62.3132863317151	0.0999760820996016	0.199994587572291
10941	100	67	0	67	1	1	0	2	2	0	1	22.5	67.5	-1.81814879365806	0.59555832752362	0.2	0	0	0	62.5133284621406	62.6133016187232	0.0999731565825641	0.200042130425572
11016	100	68	0	68	1	1	0	2	2	0	1	112.5	157.5	-0.982058568748868	-1.73441472850962	0.2	0	0	0	62.8133169298526	62.9132991074584	0.0999821776058525	0.200015311129391
11091	100	69	0	69	1	1	0	2	2	0	1	112.5	157.5	1.53829225947863	-1.97928481699777	0.2	0	0	0	63.1133573292755	63.2133100058418	0.0999526765663177	0.200058221817017
11166	100	70	0	70	1	1	0	2	2	0	1	22.5	67.5	2.12719682491373	-1.37562852403155	0.2	0	0	0	63.4133648141287	63.5133323629852	0.0999675488565117	0.20005480828695
11241	100	71	0	71	1	1	0	2	2	0	2	67.5	112.5	-2.67445885806045	-2.05765921282675	0.2	0	0	0	63.7133515751921	63.8133264384232	0.0999748632311821	0.200019212206826
11316	100	72	0	72	1	1	0	2	2	0	1	22.5	67.5	-2.38893916357737	1.61794455849534	0.2	0	0	0	64.0133639364503	64.1133380681276	0.0999741316772997	0.200037498027086
11391	100	73	0	73	1	1	0	2	2	0	2	67.5	112.5	1.94265413085171	-1.18293491029358	0.2	0	0	0	64.3133653260302	64.4133696903009	0.100004364270717	0.200027257902548
11466	100	74	0	74	1	1	0	2	2	0	1	112.5	67.5	0.777434029789652	0.303066767060666	0.2	0	0	0	64.6133874396328	64.7133698610123	0.0999824213795364	0.200017749331892
11541	100	75	0	75	1	1	0	2	2	0	2	67.5	22.5	1.68861243519523	1.99257646676764	0.2	0	0	0	64.9133976064622	65.0133795402944	0.0999819338321686	0.200027745449916
11616	100	76	0	76	1	1	0	2	2	0	1	112.5	157.5	-1.80223963650333	-0.128861040545444	0.2	0	0	0	65.213388268603	65.3133711775299	0.0999829089269042	0.200008728308603
11691	100	77	0	77	1	1	0	2	2	0	1	112.5	157.5	-0.475258044393465	-1.50504644581327	0.2	0	0	0	65.5133991669863	65.6133752490859	0.0999760820996016	0.20002798945643
11766	100	78	0	78	1	1	0	2	2	0	2	157.5	112.5	-1.52007691531692	2.43422538905379	0.2	0	0	0	65.8134029947687	65.9133829779457	0.099979983177036	0.200027745682746
11841	100	79	0	79	1	1	0	2	2	0	2	67.5	22.5	1.94701443794026	2.60282838545585	0.2	0	0	0	66.1134102358483	66.2133933885489	0.0999831527005881	0.200027257902548
11916	100	80	0	80	1	1	0	2	2	3	2	157.5	112.5	-0.823411462225652	-0.992272163474099	0.2	0	0	0	66.4134135760833	66.5134013611823	0.0999877850990742	0.200020187534392
11991	100	81	0	81	1	1	0	2	2	3	1	112.5	157.5	0.96545977735116	0.297505048837188	0.2	0	0	0	66.713425693335	66.8134044576436	0.0999787643086165	0.20002433215268
12066	100	82	0	82	1	1	0	2	2	3	1	112.5	67.5	3.07361221255903	2.87153723146947	0.2	0	0	0	67.01342903357	67.1134165748954	0.0999875413253903	0.200024575926363
12141	100	83	0	83	1	1	0	2	2	1	-1	0	135	-1.09710315823058	-0.109242676691782	0.2	0	0	0	67.3134448081255	67.4134206464514	0.0999758383259177	0.200028233230114
12216	100	84	0	84	1	1	0	2	2	3	2	157.5	22.5	0.305447452858769	-1.75297576695644	0.2	0	0	0	67.6134518054314	67.713432763936	0.0999809585046023	0.200031158979982
12291	100	85	0	85	1	1	0	2	2	3	2	67.5	112.5	1.54632181622402	-2.82927522234314	0.2	1	0.591955843148753	1	67.9134612409398	68.0134448811878	0.0999836402479559	0.200028477003798
12366	100	86	0	86	1	1	0	2	2	3	1	22.5	157.5	2.64412163470358	2.81185214195749	0.2	0	0	0	68.2134567790199	68.313449440524	0.0999926615040749	0.200011897832155
12441	100	87	0	87	1	1	0	2	2	3	1	22.5	67.5	-0.454572387130352	1.89386297958635	0.2	0	0	0	68.5134752355516	68.61345351208	0.0999782765284181	0.200025795027614
12516	100	88	0	88	1	1	0	2	2	0	2	67.5	22.5	-0.82146044786669	-0.722713646257828	0.2	0	0	0	68.8134856461547	68.9134656293318	0.099979983177036	0.200032134074718
12591	100	89	0	89	1	1	0	2	2	0	1	22.5	67.5	-2.53201723237908	0.17332923959712	0.2	0	0	0	69.1134894739371	69.2134704324417	0.0999809585046023	0.200023844605312
12666	100	90	0	90	1	1	0	2	2	0	1	22.5	67.5	2.35731409412815	0.0993893797723477	0.2	0	0	0	69.4134962274693	69.5134852316696	0.0999890042003244	0.200025795027614
12741	100	91	0	91	1	1	0	2	2	0	2	67.5	22.5	-2.64831472177573	-1.41654349246713	0.2	0	0	0	69.7135107829235	69.81348467106	0.0999738881364465	0.20002555125393
12816	100	92	0	92	1	1	0	2	2	0	2	67.5	22.5	-2.61995363744325	3.0803043470551	0.2	0	0	0	70.01350949076	70.11350727221	0.0999977814499289	0.200024819700047
12891	100	93	0	93	1	1	0	2	2	0	2	67.5	112.5	0.403482944540145	0.989936296874637	0.2	0	0	0	70.3135384309571	70.4135118313134	0.099973400356248	0.200031158747151
12966	100	94	0	94	1	1	0	2	2	0	1	22.5	67.5	-0.095147170627607	-1.64861992221508	0.2	0	0	0	70.6135378701147	70.7135300438385	0.0999921737238765	0.200026038801298
13041	100	95	0	95	1	1	0	2	2	0	2	157.5	112.5	1.16444339593051	-3.07324948046674	0.2	0	0	0	70.9135519380216	71.0135331402998	0.0999812022782862	0.20002189418301
13116	100	96	0	96	1	1	0	2	2	0	2	67.5	22.5	-1.26373282627568	-0.171870221075239	0.2	0	0	0	71.2135694192257	71.3135440386832	0.0999746194574982	0.200036278925836
13191	100	97	0	97	1	1	0	2	2	0	2	67.5	22.5	1.7310374920662	-0.807008836331266	0.2	0	0	0	71.5135751974303	71.6135737102013	0.0999985127709806	0.200031158747151
13266	100	98	0	98	1	1	0	2	2	0	1	22.5	157.5	-2.6635723362922	1.8646799148989	0.2	0	0	0	71.8135782938916	71.9135460865218	0.0999677926301956	0.200004583690315
13341	100	99	0	99	1	1	0	2	2	0	1	22.5	157.5	-1.80163825001144	1.34012482818636	0.2	0	0	0	72.11358431587	72.2135764895938	0.0999921737238765	0.200038229348138
13416	100	100	0	100	1	1	0	2	2	0	2	157.5	22.5	1.01849351948417	0.666477757534319	0.2	0	0	0	72.4135888752062	72.5135749536566	0.0999860784504563	0.200012385612354
13491	100	101	0	101	1	1	0	2	2	0	1	112.5	157.5	-2.62820031670225	-2.15330795651379	0.2	0	0	0	72.7136056248564	72.8135814634152	0.0999758385587484	0.200030671199784
13566	100	102	0	102	1	1	0	2	2	0	2	157.5	112.5	-1.23272806017985	-2.15569710742776	0.2	0	0	0	73.0135989689734	73.1135938244406	0.0999948554672301	0.200017505558208
13641	100	103	0	103	1	1	0	2	2	0	2	157.5	112.5	1.41369885653987	-1.11964006176726	0.2	0	0	0	73.3136171814986	73.4135983837768	0.0999812022782862	0.200023357057944
13716	100	104	0	104	1	1	0	2	2	0	1	112.5	67.5	1.21881755007496	-1.51158775300472	0.2	0	0	0	73.6136197901797	73.7136112325825	0.0999914424028248	0.200021406402811
13791	100	105	0	105	1	1	0	2	2	0	2	157.5	22.5	-1.36398414182027	2.32003840245237	0.2	0	0	0	73.9136370276101	74.0136157916859	0.0999787640757859	0.200025795027614
13866	100	106	0	106	1	1	0	2	2	0	1	112.5	67.5	-2.24361158150789	0.101318388558171	0.2	0	0	0	74.2136435373686	74.3136223014444	0.0999787640757859	0.200027745682746
13941	100	107	0	107	1	1	0	2	2	0	1	112.5	67.5	-0.893458624639119	0.860586242093017	0.2	0	0	0	74.5136351746041	74.6136361255776	0.100000950973481	0.200012873159721
14016	100	108	0	108	1	1	0	2	2	0	2	157.5	22.5	1.41984669664161	3.09835720376217	0.2	0	0	0	74.8136804499663	74.9136611646973	0.0999807147309184	0.200044324388728
14091	100	109	0	109	1	1	0	2	2	3	2	157.5	112.5	-0.839468415822084	-1.46706600133304	0.2	0	0	0	75.1136684303638	75.2136696248781	0.100001194514334	0.2000072656665
14166	100	110	0	110	1	1	0	2	2	3	2	67.5	112.5	-2.4040585799154	0.217250172002799	0.2	0	0	0	75.4136627495755	75.513647365151	0.0999846155755222	0.199993124697357
14241	100	111	0	111	1	1	0	2	2	3	1	112.5	67.5	1.31491282870304	-2.1950096345001	0.2	0	0	0	75.7136755981483	75.8136531433556	0.0999775452073663	0.200028232997283
14316	100	112	0	112	1	1	0	2	2	2	-1	45	0	0.435264876176877	1.69883335973484	0.2	0	0	0	76.0136791821569	76.1136698930059	0.0999907108489424	0.200026038801298
14391	100	113	0	113	1	1	0	2	2	3	2	157.5	22.5	2.62986882029741	-3.13301409240888	0.2	0	0	0	76.3136886176653	76.4136739647947	0.0999853471294045	0.200018724659458
14466	100	114	0	114	1	1	0	2	2	3	1	112.5	157.5	2.7641983018992	2.01952928658517	0.2	0	0	0	76.6136958587449	76.7136782801244	0.0999824213795364	0.200021893950179
14541	100	115	0	115	1	1	0	2	2	3	1	22.5	157.5	2.59731359735512	2.17513088199951	0.2	0	0	0	76.9137143152766	77.0136852774303	0.0999709621537477	0.200036035152152
14616	100	116	0	116	1	1	0	2	2	3	1	22.5	67.5	-0.389603334968502	2.02374109618534	0.2	0	0	0	77.2137408172712	77.3137195815798	0.0999787643086165	0.200055539840832
14691	100	117	0	117	1	1	0	2	2	0	1	112.5	157.5	1.9041157271456	-2.62369173629005	0.2	0	0	0	77.513749277452	77.6137007349171	0.0999514574650675	0.200029695872217
14766	100	118	0	118	1	1	0	2	2	0	1	112.5	67.5	-1.226700558521	-1.4456307124306	0.2	0	0	0	77.8137304310221	77.9137106579728	0.09998022695072	0.200029696105048
14841	100	119	0	119	1	1	0	2	2	0	1	112.5	157.5	-1.14593209004161	1.36045340236179	0.2	0	0	0	78.1137381598819	78.2137127791066	0.0999746192246675	0.200027501909062
14916	100	120	0	120	1	1	0	2	2	0	2	157.5	112.5	-0.630883961546616	-2.53107462498307	0.2	0	0	0	78.413740768563	78.5137253841385	0.0999846155755222	0.20002798945643
14991.25	100	121	0	121	1	1	0	2	2	0	2	67.5	112.5	2.73108724807432	-0.125022116914575	0.2	0	0	0	78.7137575182132	78.8137492043898	0.0999916861765087	0.200032134074718
15066.25	100	122	0	122	1	1	0	2	2	0	2	157.5	22.5	2.48014548001678	-0.19689163589391	0.2	0	0	0	79.0137886528391	79.1137464493513	0.0999577965121716	0.200039448449388
15141.25	100	123	0	123	1	1	0	2	2	0	2	67.5	112.5	-1.58144496206484	2.86195348689317	0.2	0	0	0	79.313778583426	79.4137466200627	0.0999680366367102	0.200032134074718
15216.25	100	124	0	124	1	1	0	2	2	0	2	157.5	22.5	-0.869000920192033	0.544334100463653	0.2	0	0	0	79.6137768037152	79.713761906838	0.09998510312289	0.200030183652416
15291.25	100	125	0	125	1	1	0	2	2	0	1	22.5	67.5	-0.844684825075915	2.24526806002069	0.2	0	0	0	79.9137867267709	80.0137615900021	0.0999748632311821	0.200024819932878
15366.25	100	126	0	126	1	1	0	2	2	0	1	112.5	67.5	-0.85883741511122	-1.23405458634459	0.2	0	0	0	80.2137876288034	80.3137771205511	0.0999894917476922	0.200026038801298
15441.25	100	127	0	127	1	1	0	2	2	0	1	22.5	157.5	-0.655904279087376	1.81786157139204	0.2	0	0	0	80.513802671805	80.613781923661	0.0999792518559843	0.20002555125393
15516.25	100	128	0	128	1	1	0	2	2	0	2	67.5	22.5	-0.70635645164489	-0.521689732587759	0.2	0	0	0	80.8138094253372	80.9137908713892	0.0999814460519701	0.200027501676232
15591.25	100	129	0	129	1	1	0	2	2	0	2	67.5	112.5	-1.91662020171016	2.61856843491928	0.2	0	0	0	81.1138468987774	81.2138142040931	0.0999673053156585	0.2000560273882
15666.25	100	130	0	130	1	1	0	2	2	0	2	67.5	112.5	0.400896683279923	-2.57016637586382	0.2	0	0	0	81.413831953425	81.5138151061255	0.0999831527005881	0.200017749331892
15741.25	100	131	0	131	1	1	0	2	2	0	1	112.5	157.5	1.86662642190519	2.05036757741125	0.2	0	0	0	81.7138465088792	81.8138216158841	0.099975107004866	0.200031402753666
15816.25	100	132	0	132	1	1	0	2	2	0	1	22.5	157.5	0.254855129682037	-1.83212466103227	0.2	0	0	0	82.0138713042252	82.1138551884796	0.0999838842544705	0.200049688341096
15891.25	100	133	0	133	1	1	0	2	2	0	2	157.5	112.5	2.11351499342652	0.272510245731398	0.2	0	0	0	82.3138785453048	82.4138634048868	0.0999848595820367	0.200023356825113
15966.25	100	134	0	134	1	1	0	2	2	0	2	157.5	112.5	0.394453374545468	0.161306800906289	0.2	0	0	0	82.6138745711651	82.7138579678722	0.0999833967071027	0.200011166278273
16041.25	100	135	0	135	1	1	0	2	2	0	1	22.5	67.5	-2.03203117355106	-2.15166726318667	0.2	0	0	0	82.9138764485251	83.0138532624114	0.0999768138863146	0.200018480652943
16116.25	100	136	0	136	1	1	0	2	2	0	2	67.5	112.5	1.62701420665635	2.08607483410186	0.2	0	0	0	83.21388271451	83.313862697687	0.099979983177036	0.200029452098534
16191.25	100	137	0	137	1	1	0	2	2	0	1	112.5	67.5	2.39325424769603	-1.18495730960267	0.2	0	0	0	83.513918725308	83.6138657941483	0.0999470688402653	0.200056027621031
16266.25	100	138	0	138	1	1	0	2	2	0	2	67.5	22.5	-1.37315909914997	-1.18911367804603	0.2	0	0	0	83.8138915891759	83.9138832753524	0.0999916861765087	0.200025795027614
16341.25	100	139	0	139	1	1	0	2	2	0	1	112.5	67.5	-3.00191687646789	-2.66391289209349	0.2	0	0	0	84.1139032188803	84.2139061202761	0.100002901395783	0.200019943527877
16416.25	100	140	0	140	1	1	0	2	2	3	2	157.5	112.5	0.0982771071725841	-1.22081431269852	0.2	0	0	0	84.4139131419361	84.5138936128933	0.0999804709572345	0.200007021659985
16491.25	100	141	0	141	1	1	0	2	2	3	1	112.5	67.5	0.277413092579907	-0.205923126408962	0.2	0	0	0	84.713917945046	84.8138991473243	0.0999812022782862	0.20002433215268
16566.25	100	142	0	142	1	1	0	2	2	3	2	157.5	22.5	0.423879474017746	1.35180048952321	0.2	0	0	0	85.0139310376253	85.1139124836773	0.0999814460519701	0.200031890301034
16641.25	100	143	0	143	1	1	0	2	2	3	2	67.5	112.5	2.93057849526603	-0.881471243712404	0.2	0	0	0	85.3139343778603	85.4139148485847	0.0999804707244039	0.20002189418301
18324.5	100	144	1	0	1	2	90	2	1	3	2	67.5	112.5	2.53876706764391	-2.47494119823278	0.2	0	0	0	92.0474750956055	92.1474580045324	0.0999829089269042	-1
18399.5	100	145	1	1	1	2	90	2	1	3	1	112.5	67.5	0.272851100166701	1.41860462023673	0.2	0	0	0	92.347517932998	92.4474650018383	0.0999470688402653	0.200059928465635
18474.5	100	146	1	2	1	2	90	2	1	3	1	112.5	157.5	0.381565131164452	-1.17503157918494	0.2	0	0	0	92.6474727550521	92.747447862057	0.099975107004866	0.200007753213868
18549.5	100	147	1	3	1	2	90	2	1	3	1	22.5	67.5	0.379180076203185	2.51519871794937	0.2	0	0	0	92.9475002323743	93.0474814346526	0.0999812022782862	0.20005237031728
18624.5	100	148	1	4	1	2	90	2	1	0	2	157.5	22.5	-1.48051938676006	2.32217990902611	0.2	0	0	0	93.247512349626	93.347464538645	0.0999521890189499	0.200030914973468
18699.5	100	149	1	5	1	2	90	2	1	0	1	22.5	157.5	2.57190233424384	1.3392269690054	0.2	0	0	0	93.5474888707977	93.6474788503256	0.0999899795278907	0.20002433215268
18774.5	100	150	1	6	1	2	90	2	1	0	1	22.5	157.5	3.0921514948523	-2.29411782797144	0.2	0	0	0	93.8474958681036	93.9474753637332	0.0999794956296682	0.200017017778009
18849.5	100	151	1	7	1	2	90	2	1	0	2	157.5	22.5	1.9949810258582	1.23119545812597	0.2	0	0	0	94.1475143246353	94.2474894316401	0.099975107004866	0.20003896090202
18924.5	100	152	1	8	1	2	90	2	1	0	1	112.5	157.5	0.63778107554223	2.75081815316022	0.2	0	0	0	94.4475140075665	94.5474981355947	0.0999841280281544	0.200024575926363
18999.5	100	153	1	9	1	2	90	2	1	0	2	157.5	22.5	-2.3709414097222	-0.344598315816874	0.2	0	0	0	94.7475234430749	94.8475039137993	0.0999804707244039	0.200025307480246
19074.5	100	154	1	10	1	2	90	2	1	0	2	67.5	22.5	2.03984826313146	-2.6452866159045	0.2	0	0	0	95.0475336099043	95.1475140806288	0.0999804707244039	0.200029696105048
19149.5	100	155	1	11	1	2	90	2	1	0	2	157.5	112.5	-1.32839666747549	-1.73895218920902	0.2	0	0	0	95.3475452396087	95.4475210781675	0.0999758385587484	0.200031158979982
19224.5	100	156	1	12	1	2	90	2	1	0	1	22.5	157.5	2.49447593750047	-1.21162956886675	0.2	0	0	0	95.6475785684306	95.7475553820841	0.099976813653484	0.200057490263134
19299.5	100	157	1	13	1	2	90	2	1	0	2	157.5	22.5	-1.62821519392574	1.32283619198504	0.2	0	0	0	95.9475858095102	96.0475606727414	0.0999748632311821	0.2000304274261
19374.5	100	158	1	14	1	2	90	2	1	0	2	67.5	22.5	0.462344391839792	-1.90716560652421	0.2	0	0	0	96.2475903688464	96.3475737653207	0.099983396474272	0.200029696105048
19449.5	100	159	1	15	1	2	90	2	1	0	1	22.5	67.5	2.07819320270487	-2.00423579416037	0.2	0	0	0	96.5475839565042	96.6475539435633	0.0999699870590121	0.200010191183537
19524.5	100	160	1	16	1	2	90	2	1	0	1	112.5	157.5	-1.97559696656414	-1.6622455829052	0.2	0	0	0	96.8475794948172	96.9475587466732	0.0999792518559843	0.20002555125393
19599.5	100	161	1	17	1	2	90	2	1	0	2	157.5	22.5	0.300692573634192	1.03415922767386	0.2	0	0	0	97.1476094103418	97.2475801287219	0.0999707183800638	0.200050663668662
19674.5	100	162	1	18	1	2	90	2	1	0	2	67.5	22.5	-2.66236562108291	1.8252025685381	0.2	0	0	0	97.4475927581079	97.5475776174571	0.0999848593492061	0.200012629386038
19749.5	100	163	1	19	1	2	90	2	1	0	1	112.5	67.5	-2.94039940720595	-0.801006502004369	0.2	0	0	0	97.747604631586	97.8475880282931	0.0999833967071027	0.200027014128864
19824.5	100	164	1	20	1	2	90	2	1	0	1	112.5	67.5	-2.01019316815702	1.01793114665501	0.2	0	0	0	98.0476096784696	98.1476281837095	0.100018505239859	0.200021650176495
19899.5	100	165	1	21	1	2	90	2	1	0	2	67.5	112.5	3.05994969681966	2.41551111898118	0.2	0	0	0	98.3476322796196	98.4476147009991	0.0999824213795364	0.200004095910117
19974.5	100	166	1	22	1	2	90	2	1	0	1	22.5	157.5	2.7611120977024	0.564860969837305	0.2	0	0	0	98.6476578065194	98.7476207229774	0.0999629164580256	0.200043105520308
20049.5	100	167	1	23	1	2	90	2	1	0	2	67.5	22.5	0.995086761612398	-1.70277438354394	0.2	0	0	0	98.9476652913727	99.0476460061036	0.0999807147309184	0.200044568395242
20124.5	100	168	1	24	1	2	90	2	1	0	2	157.5	112.5	-1.20857300000789	-1.25076818541372	0.2	0	0	0	99.2476700944826	99.3476334987208	0.099963404238224	0.200024088378996
20199.5	100	169	1	25	1	2	90	2	1	0	1	112.5	67.5	1.07589862357383	2.6813425773163	0.2	0	0	0	99.5476570995525	99.6476397644728	0.0999826649203897	0.200023600831628
20274.5	100	170	1	26	1	2	90	2	1	0	2	157.5	22.5	1.49338169371666	1.04950230923519	0.2	0	0	0	99.8476631215308	99.9476443238091	0.0999812022782862	0.200023357057944
20349.5	100	171	1	27	1	2	90	2	1	0	1	22.5	157.5	-0.743668033582134	-1.40218815379457	0.2	0	0	0	100.147655002773	100.247681065928	0.100026063155383	0.200010678963736
20424.5	100	172	1	28	1	2	90	2	1	0	2	157.5	112.5	0.577412485087896	0.879207336655334	0.2	0	0	0	100.447702960111	100.547676848015	0.0999738879036158	0.20002189418301
20499.5	100	173	1	29	1	2	90	2	1	0	2	157.5	112.5	1.90893950738802	-2.57620924893807	0.2	0	0	0	100.747686307877	100.847670923453	0.0999846155755222	0.200009459862486
20574.5	100	174	1	30	1	2	90	2	1	0	2	67.5	112.5	-3.038867849416	3.03495430877572	0.2	0	0	0	101.047691354761	101.147673532134	0.0999821773730218	0.200020431308076
20649.5	100	175	1	31	1	2	90	2	1	3	2	67.5	112.5	-1.88787979864481	-0.37483280647148	0.2	0	0	0	101.347713224357	101.447688819142	0.0999755947850645	0.200039692223072
20724.5	100	176	1	32	1	2	90	2	1	3	2	157.5	22.5	-0.200912017987205	0.17780152196803	0.2	0	0	0	101.647721440764	101.747688014526	0.0999665737617761	0.200032621622086
20799.5	100	177	1	33	1	2	90	2	1	3	1	112.5	67.5	-2.24318088395505	0.193600374046296	0.2	0	0	0	101.947717466624	102.047701838426	0.0999843718018383	0.200029452098534
20874.5	100	178	1	34	1	2	90	2	1	1	-1	90	135	-0.713909541124129	-2.85670225441164	0.2	0	0	0	102.247727633454	102.347711273935	0.0999836404807866	0.200025795027614
20949.5	100	179	1	35	1	2	90	2	1	3	1	22.5	157.5	0.436790608960802	0.62643152025076	0.2	1	0.291935923974961	1	102.547734386986	102.647719490342	0.0999851033557206	0.200023113051429
21024.5	100	180	1	36	1	2	90	2	1	3	1	112.5	157.5	-2.05027653585593	-1.35377706251607	0.2	0	0	0	102.847748698667	102.947723561898	0.0999748632311821	0.20002920832485
21099.5	100	181	1	37	1	2	90	2	1	3	2	157.5	112.5	0.124222629851331	-1.56512098065176	0.2	0	0	0	103.147754720878	103.24773324118	0.099978520302102	0.200031158979982
21174.5	100	182	1	38	1	2	90	2	1	3	2	67.5	22.5	-1.48497934060765	1.90519452161433	0.2	0	0	0	103.447761230636	103.547743164236	0.0999819335993379	0.20002798945643
21249.5	100	183	1	39	1	2	90	2	1	0	1	112.5	67.5	0.427471728384995	-2.59391684465008	0.2	0	0	0	103.747768471716	103.847745529143	0.0999770574271679	0.200025307480246
21324.5	100	184	1	40	1	2	90	2	1	0	1	112.5	157.5	-1.05496097015863	-1.34991901043362	0.2	0	0	0	104.047781808069	104.147752282675	0.0999704746063799	0.200036278925836
21399.5	100	185	1	41	1	2	90	2	1	0	2	157.5	112.5	0.890362876572433	1.60649331570953	0.2	0	0	0	104.347790024476	104.447768057231	0.0999780327547342	0.20003774180077
21474.5	100	186	1	42	1	2	90	2	1	0	2	67.5	112.5	-2.90369124328923	-1.59656638108358	0.2	0	0	0	104.647792389384	104.747773104114	0.0999807147309184	0.20002433215268
21549.5	100	187	1	43	1	2	90	2	1	0	1	22.5	67.5	1.07439071503589	-1.3879429081677	0.2	0	0	0	104.947805481963	105.047787171789	0.099981689825654	0.200032377848402
21624.5	100	188	1	44	1	2	90	2	1	0	1	112.5	67.5	-2.2321188884436	0.302250907564402	0.2	0	0	0	105.247814429691	105.347800508374	0.0999860786832869	0.200027257902548
21699.5	100	189	1	45	1	2	90	2	1	0	1	22.5	157.5	2.88605702836215	-1.97065880149098	0.2	0	0	0	105.547827034723	105.647806286579	0.0999792518559843	0.200026526348665
21774.5	100	190	1	46	1	2	90	2	1	0	1	22.5	157.5	0.62890478881934	2.49462203209013	0.2	0	0	0	105.847833544482	105.947814259212	0.0999807147309184	0.200027257902548
21849.5	100	191	1	47	1	2	90	2	1	0	2	157.5	22.5	-0.189062273294631	3.06454110467515	0.2	0	0	0	106.147843467537	106.247822231613	0.0999787640757859	0.20002920832485
21924.5	100	192	1	48	1	2	90	2	1	0	2	157.5	112.5	-0.556533224986992	-2.93040623868674	0.2	0	0	0	106.447847782867	106.547833129996	0.0999853471294045	0.20002555125393
21999.75	100	193	1	49	1	2	90	2	1	0	1	112.5	157.5	0.777875343023233	-0.24107134835941	0.2	0	0	0	106.747854536399	106.847840371076	0.0999858346767724	0.200021406402811
22074.75	100	194	1	50	1	2	90	2	1	0	1	112.5	157.5	1.18946178093552	1.57451272785772	0.2	0	0	0	107.047863240587	107.14784249221	0.0999792516231537	0.200022869510576
22149.75	100	195	1	51	1	2	90	2	1	0	1	112.5	67.5	1.62127895699231	-0.724386193399543	0.2	0	0	0	107.347879990237	107.447852171492	0.0999721812549978	0.200037498027086
22224.75	100	196	1	52	1	2	90	2	1	0	2	157.5	22.5	1.58157703973256	2.69714357707119	0.2	0	0	0	107.647879185621	107.747856487054	0.0999773014336824	0.200027014128864
22299.75	100	197	1	53	1	2	90	2	1	0	1	112.5	157.5	-0.0892886600988119	-0.000626219745700318	0.2	0	0	0	107.947883744957	108.047867628979	0.0999838840216398	0.200027257902548
22374.75	100	198	1	54	1	2	90	2	1	0	1	112.5	157.5	3.1077568079225	-2.01127861679599	0.2	0	0	0	108.247895862209	108.347904614871	0.100008752662688	0.200028233230114
22449.75	100	199	1	55	1	2	90	2	1	0	1	22.5	157.5	2.12523440976251	0.35189184917815	0.2	0	0	0	108.54792212043	108.647901128512	0.0999790080823004	0.200017505558208
22524.75	100	200	1	56	1	2	90	2	1	0	1	112.5	67.5	2.23082749895849	0.910849868119711	0.2	0	0	0	108.847938626306	108.947896910599	0.0999582842923701	0.200037497794256
22599.75	100	201	1	57	1	2	90	2	1	0	2	67.5	22.5	-0.571641356806486	-0.882016233527811	0.2	0	0	0	109.147945623845	109.247922681272	0.0999770574271679	0.20004871324636
22674.75	100	202	1	58	1	2	90	2	1	0	2	67.5	112.5	-0.41496333178275	0.994396093187434	0.2	0	0	0	109.447946769651	109.547917488031	0.0999707183800638	0.200024088378996
22749.75	100	203	1	59	1	2	90	2	1	0	1	22.5	67.5	0.414480837150672	1.77811265207635	0.2	0	0	0	109.747934262268	109.847942771157	0.100008508889005	0.200016774237156
22824.75	100	204	1	60	1	2	90	2	1	0	1	22.5	67.5	2.54624805009036	0.105149649776592	0.2	0	0	0	110.047948573949	110.147927094251	0.099978520302102	0.200005802791566
22899.75	100	205	1	61	1	2	90	2	1	0	1	22.5	67.5	0.163172540438954	0.035370495445076	0.2	0	0	0	110.347955571255	110.447936529526	0.0999809582717717	0.200028477003798
22974.75	100	206	1	62	1	2	90	2	1	3	1	112.5	67.5	0.157086903765121	2.17019513617125	0.2	0	0	0	110.647956717061	110.747944014613	0.0999872975517064	0.200020187534392
23049.75	100	207	1	63	1	2	90	2	1	3	2	67.5	22.5	-0.425845227880135	1.15774213194437	0.2	0	0	0	110.947963470593	111.047976368107	0.100012897513807	0.20001945598051
23124.75	100	208	1	64	1	2	90	2	1	3	2	67.5	112.5	2.54019105828707	0.128940557645111	0.2	0	0	0	111.248000456486	111.347959959647	0.0999595031607896	0.200024088378996
23199.75	100	209	1	65	1	2	90	2	1	2	-1	45	90	-1.12663553647947	2.83704805715653	0.2	0	0	0	111.547986730002	111.647967688506	0.0999809585046023	0.20002677035518
23274.75	100	210	1	66	1	2	90	2	1	3	2	157.5	22.5	-2.79802321572532	-2.04880546018823	0.2	0	0	0	111.847998847486	111.947974198265	0.0999753507785499	0.200031158979982
23349.75	100	211	1	67	1	2	90	2	1	3	2	157.5	112.5	1.41737903655458	1.75711918026646	0.2	0	0	0	112.148001699941	112.247982170898	0.0999804709572345	0.200027501676232
23424.75	100	212	1	68	1	2	90	2	1	3	1	22.5	67.5	2.51413975997219	-2.10376687025211	0.2	0	0	0	112.448014792521	112.547998433001	0.0999836404807866	0.200032621622086
23499.75	100	213	1	69	1	2	90	2	1	3	1	112.5	157.5	1.45774194162694	0.67908074111395	0.2	0	0	0	112.7480278851	112.84800201701	0.0999741319101304	0.200029452098534
23574.75	100	214	1	70	1	2	90	2	1	0	2	67.5	112.5	0.612746412473801	-1.6628808326336	0.2	0	0	0	113.048027080484	113.148004869465	0.0999777889810503	0.200025063473731
23649.75	100	215	1	71	1	2	90	2	1	0	2	67.5	22.5	1.58264319139656	-0.374268769363598	0.2	0	0	0	113.348060165532	113.448040392483	0.09998022695072	0.200055296067148
23724.75	100	216	1	72	1	2	90	2	1	0	1	22.5	67.5	-1.22677623589018	1.71549298083991	0.2	0	0	0	113.648068381939	113.748030323302	0.09996194136329	0.20002798945643
23799.75	100	217	1	73	1	2	90	2	1	0	2	67.5	112.5	0.587084421056018	1.80053769682448	0.2	0	0	0	113.948048803955	114.048057800625	0.100008996669203	0.200018480652943
23874.75	100	218	1	74	1	2	90	2	1	0	2	67.5	22.5	-2.70302759107085	1.82923528120396	0.2	0	0	0	114.248064822285	114.348035784438	0.0999709621537477	0.200007021659985
23949.75	100	219	1	75	1	2	90	2	1	0	1	112.5	157.5	-2.35968401352684	-1.65914771889761	0.2	0	0	0	114.548071575817	114.648048877018	0.0999773012008518	0.200035791378468
24024.75	100	220	1	76	1	2	90	2	1	0	2	157.5	112.5	-0.333269626741633	-0.0683752207095365	0.2	0	0	0	114.84807906067	114.948060262948	0.0999812022782862	0.200030183652416
24099.75	100	221	1	77	1	2	90	2	1	0	1	112.5	157.5	0.0165531110808455	-1.75152766750194	0.2	0	0	0	115.148084839107	115.248070673784	0.0999858346767724	0.200024576159194
24174.75	100	222	1	78	1	2	90	2	1	0	1	22.5	67.5	-0.648900277306165	0.503224045451314	0.2	0	0	0	115.448089641985	115.548075232888	0.0999855909030885	0.200018968200311
24249.75	100	223	1	79	1	2	90	2	1	0	2	67.5	112.5	-2.81508434312211	-0.00652146590311009	0.2	0	0	0	115.748098346172	115.848078085575	0.0999797394033521	0.20002311328426
24324.75	100	224	1	80	1	2	90	2	1	0	1	22.5	67.5	1.22462202408691	-2.91958670345977	0.2	0	0	0	116.0481072939	116.148087033303	0.0999797394033521	0.20002920832485
24399.75	100	225	1	81	1	2	90	2	1	0	1	112.5	67.5	0.164742266966869	0.608389708955836	0.2	0	0	0	116.348117948277	116.448099638335	0.0999816900584847	0.200030914973468
24474.75	100	226	1	82	1	2	90	2	1	0	2	157.5	22.5	-1.63898377900466	1.34912281040438	0.2	0	0	0	116.648129334208	116.748106148094	0.0999768138863146	0.200029695872217
24549.75	100	227	1	83	1	2	90	2	1	0	2	157.5	112.5	-1.21706041062346	0.456412579010919	0.2	0	0	0	116.948154861107	117.048137770034	0.0999829089269042	0.20004871301353
24624.75	100	228	1	84	1	2	90	2	1	0	2	157.5	22.5	-0.656426418872549	2.34287322279534	0.2	0	0	0	117.248166003264	117.348146230215	0.09998022695072	0.200028233230114
24699.75	100	229	1	85	1	2	90	2	1	0	2	67.5	112.5	-1.65956844851619	-2.01038577982095	0.2	0	0	0	117.548151545227	117.648132016184	0.0999804709572345	0.200005315011367
24774.75	100	230	1	86	1	2	90	2	1	0	2	67.5	112.5	-2.71157357204856	-2.18773820433359	0.2	0	0	0	117.848155373242	117.948138525942	0.0999831527005881	0.200023357057944
24849.75	100	231	1	87	1	2	90	2	1	0	1	22.5	67.5	2.58423962495151	-3.02982306229615	0.2	0	0	0	118.148160176119	118.2481438166	0.0999836404807866	0.200021650176495
24924.75	100	232	1	88	1	2	90	2	1	0	1	22.5	67.5	2.93093721912293	-0.024476196787973	0.2	0	0	0	118.448174000252	118.5481576405	0.0999836402479559	0.200030183652416
24999.75	100	233	1	89	1	2	90	2	1	0	1	112.5	67.5	1.04114448938403	-0.410691780158706	0.2	0	0	0	118.748179290909	118.848162199836	0.0999829089269042	0.200021650409326
25074.75	100	234	1	90	1	2	90	2	1	0	2	157.5	22.5	2.3027341524182	-0.366478359580686	0.2	0	0	0	119.048188726418	119.148176023737	0.0999872973188758	0.200026526581496
25149.75	100	235	1	91	1	2	90	2	1	0	1	22.5	67.5	-0.493841840735044	-1.48945719884311	0.2	0	0	0	119.348190847551	119.448176438222	0.0999855906702578	0.200014823814854
25224.75	100	236	1	92	1	2	90	2	1	3	1	112.5	67.5	1.91799033113026	1.87565244578674	0.2	0	0	0	119.648205158999	119.74818587373	0.0999807147309184	0.200028720777482
25299.75	100	237	1	93	1	2	90	2	1	3	1	22.5	157.5	-1.74811250060666	-2.68583646059926	0.2	0	0	0	119.948215569835	120.048198722536	0.0999831527005881	0.200029696105048
25374.75	100	238	1	94	1	2	90	2	1	3	1	112.5	157.5	1.54957626335988	2.5591801166724	0.2	0	0	0	120.24821842229	120.348201331217	0.0999829089269042	0.200019699754193
25449.75	100	239	1	95	1	2	90	2	1	1	-1	90	45	0.419737792683764	0.432893967918617	0.2	0	0	0	120.548229564447	120.648217837093	0.0999882726464421	0.200028233230114
25524.75	100	240	1	96	1	2	90	2	1	3	2	67.5	112.5	2.53472793923684	0.271673089869991	0.2	0	0	0	120.848236561753	120.948218739359	0.0999821776058525	0.200018724659458
25599.75	100	241	1	97	1	2	90	2	1	3	2	157.5	112.5	-2.52230261099425	1.83222501765391	0.2	0	0	0	121.148245997261	121.248233294813	0.0999872975517064	0.200027257902548
25674.75	100	242	1	98	1	2	90	2	1	3	2	157.5	22.5	1.83693591383756	-1.64634831561313	0.2	0	0	0	121.448264697334	121.548247118713	0.0999824213795364	0.200031402520835
25749.75	100	243	1	99	1	2	90	2	1	3	1	22.5	67.5	-2.36375967811987	-2.22279419473346	0.2	0	0	0	121.748270963319	121.848251190269	0.09998022695072	0.200023844605312
25824.75	100	244	1	100	1	2	90	2	1	0	2	67.5	22.5	0.236184756886963	-1.18746228837326	0.2	0	0	0	122.048284787219	122.148262088653	0.0999773014336824	0.200033596949652
25899.75	100	245	1	101	1	2	90	2	1	0	2	67.5	112.5	2.83355895875284	-2.87569684414068	0.2	0	0	0	122.348279594211	122.448286883999	0.100007289787754	0.200017505558208
25974.75	100	246	1	102	1	2	90	2	1	0	1	112.5	67.5	-3.13796989280325	-1.16644170536434	0.2	0	0	0	122.64828976104	122.748280228116	0.0999904670752585	0.200002877041698
26049.75	100	247	1	103	1	2	90	2	1	0	2	157.5	112.5	-1.60893150075653	0.761508909579926	0.2	0	0	0	122.948303584941	123.048285518773	0.0999819338321686	0.200023356825113
26124.75	100	248	1	104	1	2	90	2	1	0	1	22.5	157.5	-1.26123953635211	0.159948711394747	0.2	0	0	0	123.248309363378	123.348288859008	0.0999794956296682	0.200023844605312
26199.75	100	249	1	105	1	2	90	2	1	0	2	67.5	112.5	-1.10103839002196	-1.47828598616045	0.2	0	0	0	123.548314897809	123.648286103969	0.0999712061602622	0.200026038801298
26274.75	100	250	1	106	1	2	90	2	1	0	1	22.5	157.5	-2.74805006780263	0.557285628100113	0.2	0	0	0	123.848347738851	123.948312118417	0.0999643795657903	0.200061634881422
26349.75	100	251	1	107	1	2	90	2	1	0	2	67.5	22.5	2.48264615397578	-2.58567551388179	0.2	0	0	0	124.148347909562	124.248332281364	0.0999843718018383	0.200035791145638
26424.75	100	252	1	108	1	2	90	2	1	0	2	157.5	22.5	1.98200754980153	2.01415991351637	0.2	0	0	0	124.448327844031	124.548313678708	0.0999858346767724	0.199995562667027
26499.75	100	253	1	109	1	2	90	2	1	0	1	22.5	157.5	-0.645567531362599	-2.06339879199834	0.2	0	0	0	124.74833727954	124.848318969365	0.099981689825654	0.200023600831628
26574.75	100	254	1	110	1	2	90	2	1	0	2	67.5	112.5	-0.90165138556431	-1.54041635185693	0.2	0	0	0	125.048343057744	125.148323528701	0.0999804709572345	0.200024088378996
26649.75	100	255	1	111	1	2	90	2	1	0	2	157.5	112.5	0.537268448979831	-2.13747407644139	0.2	0	0	0	125.348356637871	125.448333695531	0.0999770576599985	0.200033109169453
26724.75	100	256	1	112	1	2	90	2	1	0	1	112.5	67.5	-2.85325963135873	1.19799577062727	0.2	0	0	0	125.648359490559	125.748341668164	0.0999821776058525	0.200025795027614
26799.75	100	257	1	113	1	2	90	2	1	0	2	157.5	112.5	-2.94598648789737	2.07926538964369	0.2	0	0	0	125.948369413614	126.048350615893	0.0999812022782862	0.200027745449916
26874.75	100	258	1	114	1	2	90	2	1	0	1	22.5	67.5	2.5039258241984	1.80141941456393	0.2	0	0	0	126.248381043319	126.348379799863	0.0999987565446645	0.2000304274261
26949.75	100	259	1	115	1	2	90	2	1	0	1	112.5	67.5	-1.20732413290717	-2.7574256230395	0.2	0	0	0	126.54838706553	126.648365585832	0.099978520302102	0.2000072656665
27024.75	100	260	1	116	1	2	90	2	1	0	2	157.5	22.5	-0.0099402992801445	-0.561529543374301	0.2	0	0	0	126.848394062836	126.948365268763	0.0999712059274316	0.200028477003798
27099.75	100	261	1	117	1	2	90	2	1	0	1	112.5	67.5	2.72650183302767	-0.851869336329399	0.2	0	0	0	127.14843178005	127.248412251007	0.0999804709572345	0.200066511286423
27174.75	100	262	1	118	1	2	90	2	1	0	2	67.5	112.5	2.99883262373234	-1.78225283964605	0.2	0	0	0	127.448426099261	127.548419248313	0.0999931490514427	0.200013848254457
27249.75	100	263	1	119	1	2	90	2	1	0	1	22.5	67.5	-0.171903272560988	2.95646577560052	0.2	0	0	0	127.748444312019	127.848401620751	0.0999573087319732	0.200025063706562
27324.75	100	264	1	120	1	2	90	2	1	0	1	112.5	157.5	-1.84406365646768	-2.87696443654524	0.2	0	0	0	128.048425709363	128.148411543807	0.0999858344439417	0.200024088611826
27399.75	100	265	1	121	1	2	90	2	1	0	2	67.5	22.5	-1.28586422382351	-0.0657337191230591	0.2	0	0	0	128.348461963702	128.448445360409	0.0999833967071027	0.200050419894978
27474.75	100	266	1	122	1	2	90	2	1	0	1	112.5	157.5	2.65558213534171	1.64157425094146	0.2	0	0	0	128.648465303937	128.748455527239	0.0999902233015746	0.200019943527877
27549.75	100	267	1	123	1	2	90	2	1	0	2	157.5	112.5	2.49315166638567	3.0547985494793	0.2	0	0	0	128.948454746976	129.04843156063	0.099976813653484	0.199999219737947
27624.75	100	268	1	124	1	2	90	2	1	0	1	22.5	157.5	-1.91320115959534	-2.23318677925148	0.2	0	0	0	129.248457355658	129.34843928949	0.0999819338321686	0.200025795027614
27699.75	100	269	1	125	1	2	90	2	1	0	1	112.5	157.5	2.12319680848298	-0.280731333440289	0.2	0	0	0	129.548465572065	129.648447262123	0.0999816900584847	0.200026282574981
27774.75	100	270	1	126	1	2	90	2	1	0	2	157.5	112.5	-0.916377366730962	1.53901069748365	0.2	0	0	0	129.848477445543	129.94845499075	0.0999775452073663	0.200030183419585
27849.75	100	271	1	127	1	2	90	2	1	0	2	67.5	22.5	-0.172852220129514	-2.89514797577173	0.2	0	0	0	130.148485174403	130.24847466615	0.0999894917476922	0.200030183652416
27924.75	100	272	1	128	1	2	90	2	1	0	2	67.5	22.5	-2.06160414231037	-1.62973594284053	0.2	0	0	0	130.448520209873	130.548497998854	0.0999777889810503	0.200045543722808
27999.75	100	273	1	129	1	2	90	2	1	0	1	22.5	157.5	2.38583577107276	2.45098453751297	0.2	0	0	0	130.748532083351	130.848481590394	0.0999495070427656	0.20003408449702
28074.75	100	274	1	130	1	2	90	2	1	0	1	112.5	157.5	3.11271561318015	-2.25222229987641	0.2	0	0	0	131.048504703678	131.148487856379	0.0999831527005881	0.20002311328426
28149.75	100	275	1	131	1	2	90	2	1	0	2	67.5	22.5	-1.87232422223559	-0.672800539520197	0.2	0	0	0	131.348528279923	131.448527768021	0.0999994880985469	0.200040423544124
28224.75	100	276	1	132	1	2	90	2	1	3	2	157.5	112.5	0.831857269343353	-1.2687790440614	0.2	0	0	0	131.648551124847	131.74851306621	0.09996194136329	0.200023356825113
28299.75	100	277	1	133	1	2	90	2	1	3	2	157.5	22.5	-1.93831252838285	-0.474763873557233	0.2	0	0	0	131.948547638487	132.048519088421	0.0999714499339461	0.200034572277218
28374.75	100	278	1	134	1	2	90	2	1	3	2	67.5	22.5	2.38867539001854	-2.66100880471671	0.2	0	0	0	132.248547809198	132.348526329501	0.099978520302102	0.200028720777482
28449.75	100	279	1	135	1	2	90	2	1	3	1	22.5	157.5	-2.8274194729487	-2.92628122831118	0.2	0	0	0	132.548555294052	132.648539665854	0.0999843718018383	0.200028964551166
29724.75	100	280	2	0	1	2	0	1	1	3	1	112.5	157.5	0.679927521262251	-1.87986966733709	0.2	0	0	0	137.648722766899	137.748684708262	0.09996194136329	-1
29799.75	100	281	2	1	1	2	0	1	1	3	2	67.5	22.5	2.07780205637624	-1.81310437521163	0.2	0	0	0	137.948729520431	138.048687316943	0.0999577965121716	0.200044812168926
29874.75	100	282	2	2	1	2	0	1	1	3	1	22.5	157.5	3.02837348009728	-0.305638627555941	0.2	0	0	0	138.248722132994	138.348694070475	0.0999719374813139	0.200034816050902
29949.75	100	283	2	3	1	2	0	1	1	3	1	112.5	67.5	-2.44775915308846	-1.75336673430672	0.2	0	0	0	138.548722791253	138.648707894608	0.0999851033557206	0.200028720777482
30024.75	100	284	2	4	1	2	0	1	1	0	2	67.5	22.5	-0.892119791829913	2.63112371987532	0.2	0	0	0	138.848729544785	138.948713916587	0.0999843718018383	0.200021650176495
30099.75	100	285	2	5	1	2	0	1	1	0	1	112.5	157.5	-2.05778131960134	-1.98031010752332	0.2	0	0	0	139.148743856465	139.248723108321	0.0999792518559843	0.200029939878732
30174.75	100	286	2	6	1	2	0	1	1	0	2	157.5	112.5	2.44630117395006	1.11903831319431	0.2	0	0	0	139.448748171795	139.548727667425	0.0999794956296682	0.200025063473731
30249.75	100	287	2	7	1	2	0	1	1	0	2	157.5	112.5	1.05412827000252	0.692682594107092	0.2	0	0	0	139.74877808732	139.848758558044	0.0999804707244039	0.200050419894978
30324.75	100	288	2	8	1	2	0	1	1	0	1	22.5	67.5	-1.34162436957449	0.600161815391029	0.2	0	0	0	140.048769237008	140.148752633482	0.099983396474272	0.200010678963736
30399.75	100	289	2	9	1	2	0	1	1	0	1	22.5	157.5	0.381973347007134	0.466594713853392	0.2	0	0	0	140.348794763908	140.448762556538	0.0999677926301956	0.200042130425572
30474.75	100	290	2	10	1	2	0	1	1	0	1	112.5	157.5	-1.49151101279162	0.461098243760894	0.2	0	0	0	140.648785669822	140.748765165452	0.0999794956296682	0.20002311328426
30549.75	100	291	2	11	1	2	0	1	1	0	2	157.5	22.5	-2.665610405297	-3.00117095381318	0.2	0	0	0	140.948792179581	141.048773137853	0.0999809582717717	0.200027014128864
30624.75	100	292	2	12	1	2	0	1	1	0	2	67.5	112.5	-2.95937446672167	-1.18851681557986	0.2	0	0	0	141.248797470238	141.348799152533	0.100001682294533	0.20002433238551
30699.75	100	293	2	13	1	2	0	1	1	0	2	157.5	112.5	1.84487589106879	-2.72830269322794	0.2	0	0	0	141.548828117084	141.648810294457	0.0999821773730218	0.200028964551166
30774.75	100	294	2	14	1	2	0	1	1	0	2	157.5	112.5	2.7861559683361	0.0610276677841548	0.2	0	0	0	141.848832919961	141.948794130003	0.0999612100422382	0.200022625504062
30849.75	100	295	2	15	1	2	0	1	1	0	2	157.5	22.5	-2.18545238825676	1.50401660818591	0.2	0	0	0	142.148820900358	142.248803809285	0.0999829089269042	0.20002677035518
30924.75	100	296	2	16	1	2	0	1	1	0	1	22.5	157.5	-0.693265588245437	-1.85744935823023	0.2	0	0	0	142.448828628985	142.548813732341	0.0999851033557206	0.200024819700047
30999.75	100	297	2	17	1	2	0	1	1	0	1	112.5	157.5	2.02265360881839	-2.9251109823034	0.2	0	0	0	142.748841234017	142.848820485873	0.0999792518559843	0.200027501676232
31074.75	100	298	2	18	1	2	0	1	1	0	1	112.5	157.5	0.27916240068024	-1.58411681430743	0.2	0	0	0	143.048841404729	143.148818462156	0.0999770574271679	0.200020918855444
31149.75	100	299	2	19	1	2	0	1	1	0	2	157.5	22.5	-2.31910726471956	-2.559834040736	0.2	0	0	0	143.348844500957	143.44883545558	0.0999909546226263	0.200026038801298
31224.75	100	300	2	20	1	2	0	1	1	0	2	157.5	22.5	-2.58027831081885	1.16067011122235	0.2	0	0	0	143.648855643114	143.74883196922	0.0999763261061162	0.200020187534392
31299.75	100	301	2	21	1	2	0	1	1	0	2	67.5	112.5	1.8863651586134	0.0228667552035313	0.2	0	0	0	143.948867029045	144.048869930441	0.100002901395783	0.200035059824586
31374.75	100	302	2	22	1	2	0	1	1	0	2	157.5	112.5	-2.11888785262372	-0.366870819787767	0.2	0	0	0	144.248870613053	144.348847426707	0.099976813653484	0.200000682612881
31449.75	100	303	2	23	1	2	0	1	1	0	1	112.5	67.5	1.57321436231768	-2.85934901694964	0.2	0	0	0	144.548900284572	144.648883681279	0.0999833967071027	0.200052857864648
31524.75	100	304	2	24	1	2	0	1	1	0	1	22.5	67.5	1.27379843963295	0.358898979277168	0.2	0	0	0	144.848913377151	144.948889703257	0.0999763261061162	0.200029695872217
31599.75	100	305	2	25	1	2	0	1	1	0	2	67.5	22.5	0.560711490915797	-2.27415098408208	0.2	0	0	0	145.14891696116	145.248898894992	0.0999819338321686	0.200027257902548
31674.75	100	306	2	26	1	2	0	1	1	0	1	112.5	157.5	0.869934757604319	1.0666039915382	0.2	0	0	0	145.448930541519	145.54891076847	0.09998022695072	0.20003164652735
31749.75	100	307	2	27	1	2	0	1	1	0	2	67.5	112.5	-1.21616438395054	-2.70243387259558	0.2	0	0	0	145.748935344396	145.848917034455	0.0999816900584847	0.200024575926363
31824.75	100	308	2	28	1	2	0	1	1	0	1	22.5	157.5	-0.457914661863528	-2.68190306589165	0.2	0	0	0	146.048943560803	146.148929151706	0.0999855909030885	0.200026526348665
31899.75	100	309	2	29	1	2	0	1	1	0	2	157.5	112.5	1.75895859922358	2.10701012449011	0.2	0	0	0	146.348939586664	146.448933954816	0.0999943681526929	0.200010434957221
31974.75	100	310	2	30	1	2	0	1	1	0	1	22.5	157.5	0.95393123157577	3.14145076858529	0.2	0	0	0	146.648959262297	146.748938270146	0.0999790078494698	0.200025307480246
32049.75	100	311	2	31	1	2	0	1	1	0	1	112.5	67.5	0.267272101140063	-0.508290779456593	0.2	0	0	0	146.948965040501	147.048950875178	0.0999858346767724	0.20002677035518
32124.75	100	312	2	32	1	2	0	1	1	0	2	67.5	22.5	-0.119286318984819	1.07105666597285	0.2	0	0	0	147.24898105883	147.348931297194	0.0999502383638173	0.200030183652416
32199.75	100	313	2	33	1	2	0	1	1	0	2	67.5	22.5	1.16995585415141	-1.68069015531863	0.2	0	0	0	147.548955873353	147.64893878228	0.0999829089269042	0.200024576159194
32274.75	100	314	2	34	1	2	0	1	1	0	1	22.5	67.5	-0.969870366960191	3.09491446227984	0.2	0	0	0	147.848985788645	147.948950655758	0.0999648671131581	0.200047006364912
32349.75	100	315	2	35	1	2	0	1	1	0	2	67.5	22.5	-1.7833890359276	-1.84141265337886	0.2	0	0	0	148.148972062161	148.248953508213	0.0999814460519701	0.200021406402811
32424.75	100	316	2	36	1	2	0	1	1	3	1	112.5	67.5	0.880081241214816	2.55541197248958	0.2	0	0	0	148.448987349169	148.548962943722	0.0999755945522338	0.200033840956166
32500	100	317	2	37	1	2	0	1	1	3	2	67.5	22.5	-1.44058970967619	0.391076979093351	0.2	0	0	0	148.748998978874	148.848983350676	0.0999843718018383	0.200036035152152
32575	100	318	2	38	1	2	0	1	1	3	1	112.5	157.5	1.42396721123597	2.78938188912572	0.2	0	0	0	149.049006951274	149.148992298404	0.0999853471294045	0.200023600598797
32650	100	319	2	39	1	2	0	1	1	1	-1	0	135	2.42233333171243	-2.71327306263273	0.2	0	0	0	149.349033697275	149.449024164351	0.0999904670752585	0.20004139887169
32725	100	320	2	40	1	2	0	1	1	3	2	67.5	112.5	-2.66809658531313	2.98053566350151	0.2	0	0	0	149.649045814527	149.749031649204	0.0999858346767724	0.200021650176495
32800	100	321	2	41	1	2	0	1	1	3	1	22.5	67.5	0.313586302855265	2.58781941044498	0.2	0	0	0	149.949055981589	150.04903864651	0.0999826649203897	0.20002433238551
32875	100	322	2	42	1	2	0	1	1	3	1	22.5	157.5	0.470269362095164	-2.81469405889644	0.2	0	0	0	150.249038354028	150.349026626907	0.0999882728792727	0.199999707518145
32950	100	323	2	43	1	2	0	1	1	3	2	157.5	22.5	2.68052116527355	-2.93486176010837	0.2	0	0	0	150.549072901951	150.649032648886	0.0999597469344735	0.20004627504386
33025	100	324	2	44	1	2	0	1	1	0	1	112.5	157.5	1.52541801573813	2.85393202929787	0.2	0	0	0	150.849041864974	150.949045497691	0.100003632716835	0.200009216088802
33100	100	325	2	45	1	2	0	1	1	0	1	22.5	157.5	-1.2420042525254	-0.472166855554291	0.2	0	0	0	151.14909323561	151.249051275896	0.0999580402858555	0.200047737918794
33175	100	326	2	46	1	2	0	1	1	0	2	67.5	22.5	-3.12479034417686	-2.14572022280121	0.2	0	0	0	151.449079021579	151.549059004756	0.099979983177036	0.200027745682746
33250	100	327	2	47	1	2	0	1	1	0	2	67.5	112.5	2.72354434113681	-2.7165680817466	0.2	0	0	0	151.749080898939	151.849066002062	0.09998510312289	0.20002189418301
33325	100	328	2	48	1	2	0	1	1	0	2	67.5	112.5	2.89726366536249	-2.13727613162875	0.2	0	0	0	152.049088140018	152.149070805172	0.0999826651532203	0.200022137956694
33400	100	329	2	49	1	2	0	1	1	0	1	112.5	157.5	-1.91448798105506	-0.0450968274219674	0.2	0	0	0	152.34911196027	152.449083897751	0.0999719374813139	0.200041155098006
33475	100	330	2	50	1	2	0	1	1	0	2	67.5	112.5	-0.833017560205342	-1.72088465611519	0.2	0	0	0	152.649110667873	152.749094308354	0.0999836404807866	0.200026770122349
33550	100	331	2	51	1	2	0	1	1	0	2	67.5	22.5	-0.919759681417584	-1.14073996576435	0.2	0	0	0	152.949136926327	153.049118372379	0.0999814460519701	0.20004261797294
33625	100	332	2	52	1	2	0	1	1	0	1	22.5	157.5	-2.2566351175948	-2.27102284109952	0.2	0	0	0	153.249144654954	153.349110984942	0.0999663299880922	0.200026282574981
33700	100	333	2	53	1	2	0	1	1	0	2	67.5	112.5	2.82240746020408	-2.2853950533786	0.2	0	0	0	153.549133610446	153.649114812724	0.0999812022782862	0.200022625504062
33775	100	334	2	54	1	2	0	1	1	0	1	112.5	157.5	1.03531354130785	1.90742911825844	0.2	0	0	0	153.849137682002	153.949121566257	0.0999838842544705	0.200022869277745
33850	100	335	2	55	1	2	0	1	1	0	2	67.5	22.5	-2.25736877835007	-1.13434836649194	0.2	0	0	0	154.149150774581	154.249128076015	0.0999773014336824	0.20002920832485
33925	100	336	2	56	1	2	0	1	1	0	1	22.5	67.5	-0.54478256727774	-2.87273100608981	0.2	0	0	0	154.449155821465	154.549134097993	0.0999782765284181	0.200027745449916
34000	100	337	2	57	1	2	0	1	1	0	2	67.5	112.5	-2.24323825585927	-1.650573901236	0.2	0	0	0	154.749165988294	154.849146946799	0.0999809585046023	0.200031890301034
34075	100	338	2	58	1	2	0	1	1	0	1	112.5	67.5	2.52587897544727	1.26694799260021	0.2	0	0	0	155.049169328529	155.149154187879	0.0999848593492061	0.200022381730378
34150	100	339	2	59	1	2	0	1	1	0	1	22.5	157.5	2.97966638760657	-1.65258749693867	0.2	0	0	0	155.349185103085	155.449160453863	0.0999753507785499	0.200030915206298
34225	100	340	2	60	1	2	0	1	1	0	2	157.5	22.5	2.98224275859423	2.19355440778143	0.2	0	0	0	155.649211605079	155.749170133146	0.099958528066054	0.20005115121603
34300	100	341	2	61	1	2	0	1	1	0	1	22.5	67.5	2.63739007391463	2.42304371148707	0.2	0	0	0	155.949196659727	156.049181031529	0.0999843718018383	0.200026526581496
34375	100	342	2	62	1	2	0	1	1	0	1	22.5	157.5	0.266017308027869	1.05744233703279	0.2	0	0	0	156.249209752306	156.349190223031	0.0999804707244039	0.200028720777482
34450	100	343	2	63	1	2	0	1	1	0	2	67.5	112.5	-0.397254888213965	-0.833453951571107	0.2	0	0	0	156.549211629434	156.649194294587	0.0999826651532203	0.200021406402811
34525	100	344	2	64	1	2	0	1	1	0	2	67.5	22.5	1.12753178291029	1.42510785531505	0.2	0	0	0	156.849223990692	156.949206899619	0.0999829089269042	0.200029696105048
34600	100	345	2	65	1	2	0	1	1	0	2	157.5	22.5	-2.60084576947862	2.66258614614578	0.2	0	0	0	157.149234157521	157.249217310222	0.0999831527005881	0.200027257902548
34675	100	346	2	66	1	2	0	1	1	0	2	157.5	22.5	1.2227760437811	-2.22146961557598	0.2	0	0	0	157.449240423506	157.549222113332	0.099981689825654	0.20002311328426
34750	100	347	2	67	1	2	0	1	1	0	1	22.5	157.5	0.707011103746161	2.3293065273836	0.2	0	0	0	157.749247664586	157.849232036388	0.0999843718018383	0.20002555125393
34825	100	348	2	68	1	2	0	1	1	0	2	67.5	22.5	2.67213785074179	3.03780777653402	0.2	0	0	0	158.049271484837	158.149256100412	0.0999846155755222	0.200039448449388
34900	100	349	2	69	1	2	0	1	1	0	1	112.5	67.5	2.38531525345074	1.41658066861911	0.2	0	0	0	158.349281651666	158.449268461671	0.0999868100043386	0.20002555125393
34975	100	350	2	70	1	2	0	1	1	0	1	112.5	157.5	-2.50235356265684	1.10802763779552	0.2	0	0	0	158.649291818496	158.749276190298	0.0999843718018383	0.200023356825113
35050	100	351	2	71	1	2	0	1	1	0	2	157.5	22.5	-2.26500598519391	-2.36793864172274	0.2	0	0	0	158.949304423528	159.049285382032	0.0999809585046023	0.200028233230114
35125	100	352	2	72	1	2	0	1	1	0	1	112.5	67.5	-1.92957658413752	-1.12295070211367	0.2	0	0	0	159.249288258841	159.349271411542	0.0999831527005881	0.200002876808867
35200	100	353	2	73	1	2	0	1	1	0	1	112.5	67.5	1.21572038439436	0.518104076644872	0.2	0	0	0	159.5492889171	159.649279384175	0.0999904670752585	0.200017505558208
35275	100	354	2	74	1	2	0	1	1	0	2	67.5	22.5	-2.95596349076356	-1.42072702906111	0.2	0	0	0	159.849302985007	159.949285162613	0.0999821776058525	0.200023600831628
35350	100	355	2	75	1	2	0	1	1	0	1	112.5	67.5	2.76422701186499	0.138068829214006	0.2	0	0	0	160.149335582275	160.249298742739	0.0999631604645401	0.200050419662148
35425	100	356	2	76	1	2	0	1	1	0	2	67.5	22.5	2.50417436801919	1.98606126243276	0.2	0	0	0	160.449322587345	160.549310372444	0.0999877850990742	0.200023844605312
35500	100	357	2	77	1	2	0	1	1	0	2	157.5	22.5	-2.58209122485777	-0.361555743741896	0.2	0	0	0	160.749331047526	160.849318345077	0.0999872975517064	0.20002067508176
35575	100	358	2	78	1	2	0	1	1	0	2	157.5	112.5	2.50947887333857	1.90687984809706	0.2	0	0	0	161.049341214355	161.149318515556	0.0999773012008518	0.200022869277745
35650	100	359	2	79	1	2	0	1	1	0	1	112.5	67.5	-1.53270595024937	-1.49652975983793	0.2	0	0	0	161.349337483989	161.449320392916	0.0999829089269042	0.200018968433142
35725	100	360	2	80	1	2	0	1	1	0	2	157.5	112.5	-1.76298215926347	-2.5626841327118	0.2	0	0	0	161.649368618615	161.749350064667	0.0999814460519701	0.200048225698993
35800	100	361	2	81	1	2	0	1	1	0	2	157.5	112.5	-1.42939839232124	0.964967786840673	0.2	0	0	0	161.949346846435	162.049332193332	0.0999853468965739	0.199996781768277
35875	100	362	2	82	1	2	0	1	1	0	1	22.5	67.5	-2.19197685766538	-3.03782929844518	0.2	0	0	0	162.24938578275	162.349341872614	0.0999560898635536	0.20005358941853
35950	100	363	2	83	1	2	0	1	1	0	1	112.5	67.5	0.258983123812082	2.64940396858785	0.2	0	0	0	162.549363279017	162.649350820342	0.0999875413253903	0.200021406402811
36025	100	364	2	84	1	2	0	1	1	0	2	157.5	112.5	2.3404762394663	2.98783166628737	0.2	0	0	0	162.849371983204	162.94935659878	0.0999846155755222	0.200021162861958
36100	100	365	2	85	1	2	0	1	1	0	1	112.5	67.5	-2.1693823860101	2.72774122413063	0.2	0	0	0	163.149377517635	163.249386026524	0.100008508889005	0.200020918855444
36175	100	366	2	86	1	2	0	1	1	0	1	22.5	67.5	-0.454514465819158	1.112720747086	0.2	0	0	0	163.449389634887	163.549371568719	0.0999819338321686	0.200003608362749
36250	100	367	2	87	1	2	0	1	1	0	1	22.5	67.5	1.84766001108063	-1.9732426485999	0.2	0	0	0	163.749395169318	163.849380516447	0.0999853471294045	0.200023600598797
36325	100	368	2	88	1	2	0	1	1	0	1	22.5	157.5	0.684467793182648	2.9225356435619	0.2	0	0	0	164.049412650522	164.14939092705	0.0999782765284181	0.200032134074718
36400	100	369	2	89	1	2	0	1	1	0	2	157.5	22.5	1.85638188515455	0.868348079398018	0.2	0	0	0	164.349452074617	164.449423768325	0.09997169370763	0.200061147566885
36475	100	370	2	90	1	2	0	1	1	0	1	22.5	157.5	3.1198743677327	-2.48290111159764	0.2	0	0	0	164.649450294673	164.749433935154	0.0999836404807866	0.200026526348665
36550	100	371	2	91	1	2	0	1	1	0	1	22.5	67.5	0.448723910601038	-0.102778407769903	0.2	0	0	0	164.949430960696	165.049412650522	0.099981689825654	0.199997025541961
36625	100	372	2	92	1	2	0	1	1	0	2	157.5	112.5	2.5028676686038	2.47037971567304	0.2	0	0	0	165.24943893333	165.349427205976	0.0999882726464421	0.200026282807812
36700	100	373	2	93	1	2	0	1	1	0	1	22.5	67.5	-1.15471096958573	0.613675196356807	0.2	0	0	0	165.549449100159	165.649427620461	0.099978520302102	0.20002189418301
36775	100	374	2	94	1	2	0	1	1	0	2	157.5	22.5	-2.07645580597738	-0.940607376754892	0.2	0	0	0	165.849460973637	165.949460217729	0.0999992440920323	0.200033353175968
36850	100	375	2	95	1	2	0	1	1	0	2	67.5	112.5	1.69168099365601	3.12500310854855	0.2	0	0	0	166.149465288967	166.249475260964	0.100009971996769	0.200005071237683
36925	100	376	2	96	1	2	0	1	1	0	1	22.5	67.5	-2.15432055125239	-0.0725094543117879	0.2	0	0	0	166.449501787312	166.549482989591	0.0999812022782862	0.200026526348665
37000	100	377	2	97	1	2	0	1	1	0	1	22.5	67.5	2.59541258810004	-2.89648935754532	0.2	0	0	0	166.74950707797	166.849469019333	0.09996194136329	0.200024088378996
37075	100	378	2	98	1	2	0	1	1	0	1	112.5	67.5	-2.45575090544035	-2.21554336930411	0.2	0	0	0	167.049491888611	167.149471628014	0.0999797394033521	0.200022869277745
37150	100	379	2	99	1	2	0	1	1	0	2	157.5	112.5	-1.26972287680725	-0.194208906523204	0.2	0	0	0	167.349528874503	167.449507395038	0.0999785205349326	0.20005724648945
37225	100	380	2	100	1	2	0	1	1	3	1	22.5	157.5	-1.25164410765208	1.12141729278947	0.2	0	0	0	167.649502469925	167.74948635418	0.0999838842544705	0.199995074886829
37300	100	381	2	101	1	2	0	1	1	3	2	157.5	112.5	3.06191628444706	-0.383887410565506	0.2	0	0	0	167.949514831183	168.049493839266	0.0999790080823004	0.200028477003798
37375	100	382	2	102	1	2	0	1	1	3	2	157.5	22.5	-0.53907463726341	0.530404304857788	0.2	0	0	0	168.249524266692	168.349503762322	0.0999794956296682	0.2000304274261
37450	100	383	2	103	1	2	0	1	1	2	-1	45	0	-2.20466099624105	0.272434391146445	0.2	0	0	0	168.549527119147	168.649513197597	0.0999860784504563	0.200023356825113
37525	100	384	2	104	1	2	0	1	1	3	2	67.5	22.5	-1.97050282408363	-1.371238938372	0.2	0	0	0	168.849564105039	168.949543844443	0.0999797394033521	0.200050907442346
37600	100	385	2	105	1	2	0	1	1	3	1	112.5	67.5	0.65786716894492	-2.85569763153462	0.2	1	0.591970715671778	-1	169.149570858572	169.24954304006	0.0999721814878285	0.200027014128864
37675	100	386	2	106	1	2	0	1	1	3	1	112.5	157.5	2.17778072665713	-0.620827335147712	0.2	0	0	0	169.449580537854	169.549561983906	0.0999814460519701	0.200037497794256
37750	100	387	2	107	1	2	0	1	1	3	1	22.5	67.5	1.67552472478974	2.02693812613967	0.2	0	0	0	169.749573150417	169.849556059344	0.0999829089269042	0.200011166511104
37825	100	388	2	108	1	2	0	1	1	0	1	112.5	157.5	1.07348131929468	2.89776035062224	0.2	0	0	0	170.049598189769	170.149554035859	0.0999558460898697	0.200042130425572
37900	100	389	2	109	1	2	0	1	1	0	2	67.5	22.5	-2.61974880228974	-2.98923382151811	0.2	0	0	0	170.349581293762	170.449557619868	0.0999763261061162	0.200027257902548
37975	100	390	2	110	1	2	0	1	1	0	1	22.5	157.5	-0.809086993719137	-0.477076414029137	0.2	0	0	0	170.649585609091	170.749567786697	0.0999821776058525	0.200027989223599
38050	100	391	2	111	1	2	0	1	1	0	2	67.5	112.5	2.87883996411885	2.8995835669128	0.2	0	0	0	170.949611135991	171.049585999222	0.0999748632311821	0.200043349293992
38125	100	392	2	112	1	2	0	1	1	0	1	112.5	67.5	-1.78328347027174	0.704948045354119	0.2	0	0	0	171.249606674304	171.349622497568	0.100015823263675	0.20002067508176
38200	100	393	2	113	1	2	0	1	1	0	1	112.5	157.5	-0.657079657759015	-2.74485669204714	0.2	0	0	0	171.549640490673	171.649604138685	0.0999636480119079	0.200017993105575
38275	100	394	2	114	1	2	0	1	1	0	1	112.5	157.5	-1.68367628385667	-2.98686707927963	0.2	0	0	0	171.849647731753	171.949628690258	0.0999809585046023	0.200043593067676
38350	100	395	2	115	1	2	0	1	1	0	1	22.5	67.5	-0.938851934398584	-0.992630035137386	0.2	0	0	0	172.149655704387	172.249618620845	0.0999629164580256	0.200027014128864
38425	100	396	2	116	1	2	0	1	1	0	1	22.5	157.5	-1.7635365399271	-2.09649955237059	0.2	0	0	0	172.449635395082	172.549617816461	0.0999824213795364	0.200016774237156
38500	100	397	2	117	1	2	0	1	1	0	2	157.5	112.5	-0.678765057412125	2.96510710790603	0.2	0	0	0	172.749642879935	172.849628227064	0.0999853471294045	0.200025063473731
38575	100	398	2	118	1	2	0	1	1	0	2	67.5	112.5	2.50396273450705	-1.02665319134253	0.2	0	0	0	173.049654753413	173.149636931019	0.0999821776058525	0.200026526348665
38650	100	399	2	119	1	2	0	1	1	0	2	67.5	112.5	-1.62218153441526	2.18610461530557	0.2	0	0	0	173.349663701374	173.449638320832	0.0999746194574982	0.20002677035518
38725	100	400	2	120	1	2	0	1	1	0	1	112.5	157.5	-2.8411683779898	0.3890876809032	0.2	0	0	0	173.649666310055	173.74965019431	0.0999838842544705	0.200027989223599
38800	100	401	2	121	1	2	0	1	1	0	2	157.5	22.5	-0.818750845253781	1.17958827334214	0.2	0	0	0	173.949675257783	174.049660848686	0.0999855909030885	0.200025063473731
38875	100	402	2	122	1	2	0	1	1	0	2	157.5	22.5	1.40036081546853	-1.56605723883821	0.2	0	0	0	174.249686156167	174.349666627124	0.0999804709572345	0.200025307480246
38950	100	403	2	123	1	2	0	1	1	0	1	112.5	67.5	0.132843853895674	1.52598999308097	0.2	0	0	0	174.549689008854	174.649672649102	0.0999836402479559	0.200022381730378
39025	100	404	2	124	1	2	0	1	1	3	2	157.5	22.5	-0.930570782587982	-2.0963065383642	0.2	0	0	0	174.849702832755	174.949680377962	0.0999775452073663	0.200030183652416
39100	100	405	2	125	1	2	0	1	1	3	2	67.5	112.5	0.952337069713511	-2.23890455878562	0.2	0	0	0	175.149709586287	175.249696152285	0.0999865659978241	0.20002920832485
39175	100	406	2	126	1	2	0	1	1	3	1	22.5	67.5	2.70813606009858	0.498412003599499	0.2	0	0	0	175.449717802694	175.549696810776	0.0999790080823004	0.200021650409326
39250	100	407	2	127	1	2	0	1	1	3	2	157.5	112.5	-0.539113672892142	0.706027504009498	0.2	0	0	0	175.749729432398	175.849703076528	0.0999736441299319	0.200032621622086
42150	100	408	3	0	2	1	0	1	1	3	2	157.5	22.5	1.58793661375728	-0.350318991323606	0.166666666666667	0	0	0	187.350049408153	187.450021833181	0.0999724250286818	-1
42246	100	409	3	1	2	1	0	1	1	3	1	22.5	67.5	0.531603332375417	1.36958589540067	0.283333333333333	0	0	0	187.733407841763	187.833367832471	0.0999599907081574	0.283386008581147
42337.5	100	410	3	2	2	1	0	1	1	3	2	67.5	22.5	1.9461945753881	-1.60735203211181	0.266666666666667	0	0	0	188.100062634796	188.200044812402	0.0999821776058525	0.266694802325219
42421	100	411	3	3	2	1	0	1	1	3	1	112.5	67.5	0.0566016791569961	1.9901944541184	0.233333333333333	0	0	0	188.433405720629	188.533373757033	0.0999680364038795	0.233360908227041
42479.25	100	412	3	4	2	1	0	1	1	0	2	67.5	112.5	-3.00638638129316	-0.865461563080169	0.133333333333333	0	0	0	188.666757364059	188.76675295108	0.0999955870211124	0.13338360702619
42575	100	413	3	5	2	1	0	1	1	0	1	22.5	67.5	1.61386564467978	-1.47279628877526	0.283333333333333	0	0	0	189.050113359466	189.150098462589	0.09998510312289	0.283360408386216
42671	100	414	3	6	2	1	0	1	1	0	1	22.5	157.5	-0.985145347716068	-0.351721293730063	0.283333333333333	0	0	0	189.433460821398	189.533443486551	0.0999826651532203	0.283362358808517
42762.5	100	415	3	7	2	1	0	1	1	0	1	22.5	157.5	2.84767740755246	0.473217087841056	0.266666666666667	0	0	0	189.800119515508	189.900101205567	0.0999816900584847	0.26667602895759
42841.75	100	416	3	8	2	1	0	1	1	0	2	157.5	112.5	-1.08675623703653	3.12646335557706	0.216666666666667	0	0	0	190.116784073412	190.216768201208	0.0999841277953237	0.21668286784552
42921	100	417	3	9	2	1	0	1	1	0	1	22.5	67.5	2.65438216487036	1.90540758446882	0.216666666666667	0	0	0	190.433459358523	190.533444705652	0.0999853471294045	0.216691157314926
42971	100	418	3	10	2	1	0	1	1	0	2	157.5	22.5	1.84354880743222	2.16756528177588	0.1	0	0	0	190.633464185987	190.733470744453	0.100006558466703	0.100019480334595
43046	100	419	3	11	2	1	0	1	1	0	1	22.5	157.5	-0.0348676499916478	-1.35075228698611	0.2	0	0	0	190.933477034792	191.0334487285	0.09997169370763	0.200006290338933
43133.5	100	420	3	12	2	1	0	1	1	0	2	157.5	112.5	-0.0796756077194134	-1.28056918869763	0.25	0	0	0	191.283486458007	191.383464003215	0.0999775452073663	0.250037729507312
43204.25	100	421	3	13	2	1	0	1	1	0	2	67.5	112.5	2.55200988131215	-0.680856584747035	0.183333333333333	0	0	0	191.566847841721	191.666852205992	0.100004364270717	0.183383838506415
43287.75	100	422	3	14	2	1	0	1	1	0	1	112.5	67.5	2.93543278035668	0.92934503284742	0.233333333333333	0	0	0	191.900190439774	192.000152381137	0.09996194136329	0.233338233781978
43341.75	100	423	3	15	2	1	0	1	1	0	2	157.5	112.5	1.10589299903986	-2.89501223490281	0.116666666666667	0	0	0	192.116836979985	192.216821839334	0.0999848593492061	0.116684598848224
43429.25	100	424	3	16	2	1	0	1	1	0	2	67.5	112.5	-2.52520924963214	-0.27504955792941	0.25	0	0	0	192.466845184099	192.566826142604	0.0999809585046023	0.250023344764486
43483.5	100	425	3	17	2	1	0	1	1	0	1	112.5	157.5	-2.83872032503712	0.137155390231275	0.116666666666667	0	0	0	192.683548775734	192.783532659989	0.0999838842544705	0.116722633130848
43541.75	100	426	3	18	2	1	0	1	1	0	2	157.5	112.5	-0.233516202108173	-0.832569857683886	0.133333333333333	0	0	0	192.916869211709	193.016843343386	0.0999741316772997	0.133336551720276
43608.5	100	427	3	19	2	1	0	1	1	0	2	157.5	22.5	0.359517009564117	2.6567188645217	0.166666666666667	0	0	0	193.183540364262	193.283515471499	0.0999751072376966	0.16669702087529
43679.25	100	428	3	20	2	1	0	1	1	0	1	22.5	67.5	-0.379236463641476	0.357695392983362	0.183333333333333	0	0	0	193.466872003162	193.566857837839	0.0999858346767724	0.183356531662866
43762.75	100	429	3	21	2	1	0	1	1	0	2	157.5	112.5	-2.99991753641895	-0.233577613682454	0.233333333333333	0	0	0	193.800244346028	193.900226523634	0.0999821776058525	0.233386508189142
43837.75	100	430	3	22	2	1	0	1	1	0	2	67.5	22.5	-1.31800092969334	-0.808555021623205	0.2	0	0	0	194.100252074888	194.200213040924	0.0999609660357237	0.20002555125393
43921	100	431	3	23	2	1	0	1	1	0	2	157.5	22.5	-0.423511752363964	2.79057154408478	0.233333333333333	0	0	0	194.433596867369	194.533560759155	0.0999638917855918	0.233383826445788
43983.5	100	432	3	24	2	1	0	1	1	0	2	67.5	22.5	-2.81596819845186	-2.57290872155551	0.15	0	0	0	194.68360412051	194.783558747731	0.0999546272214502	0.150043361354619
44033.5	100	433	3	25	2	1	0	1	1	0	1	22.5	157.5	-3.08474387703411	0.00763940749832148	0.1	0	0	0	194.883580666035	194.983561868314	0.0999812022782862	0.100021918304265
44116.75	100	434	3	26	2	1	0	1	1	0	2	67.5	22.5	0.288608115699335	-1.71785484983219	0.233333333333333	0	0	0	195.216923751868	195.316900321748	0.0999765698798001	0.233361883554608
44208.5	100	435	3	27	2	1	0	1	1	0	2	157.5	112.5	-2.08482877178258	0.504090157934377	0.266666666666667	0	0	0	195.583601219347	195.683611191111	0.100009971763939	0.266700897598639
44296	100	436	3	28	2	1	0	1	1	3	1	112.5	157.5	-0.85799504808908	0.970900525606897	0.25	0	0	0	195.933634535875	196.033617444802	0.0999829089269042	0.250023344764486
44350.25	100	437	3	29	2	1	0	1	1	3	2	67.5	112.5	-1.78432027403077	2.34244323979705	0.116666666666667	0	0	0	196.150296679931	196.250292266952	0.0999955870211124	0.116679235128686
44433.5	100	438	3	30	2	1	0	1	1	3	2	67.5	22.5	1.2901970890965	-1.91842006677983	0.233333333333333	0	0	0	196.483655613149	196.583617310738	0.099961697589606	0.233363346196711
44533.5	100	439	3	31	2	1	0	1	1	2	-1	45	0	-2.22129193916435	-2.45347534759443	0.3	0	0	0	196.883662342327	196.983619895065	0.0999575527384877	0.300045031588525
44604.25	100	440	3	32	2	1	0	1	1	3	2	157.5	112.5	0.492193874112099	0.215831722797212	0.183333333333333	0	0	0	197.167001295369	197.266980303451	0.0999790080823004	0.183381400303915
44679.25	100	441	3	33	2	1	0	1	1	3	1	22.5	157.5	0.0857710987785714	-1.03122342780399	0.2	0	0	0	197.46698659379	197.566964626545	0.0999780327547342	0.200006290338933
44729.25	100	442	3	34	2	1	0	1	1	3	1	22.5	67.5	0.248182407805952	-0.461116997583202	0.1	0	0	0	197.6669906897	197.766967503354	0.099976813653484	0.100026063155383
44791.75	100	443	3	35	2	1	0	1	1	3	1	112.5	67.5	-0.642049107304468	0.352627920883492	0.15	0	0	0	197.916995992651	198.016976219602	0.09998022695072	0.150028489297256
44866.75	100	444	3	36	2	1	0	1	1	0	1	112.5	67.5	-0.599474423125386	-2.8971583361178	0.2	0	0	0	198.217035904294	198.317014912143	0.0999790078494698	0.200059684691951
44941.75	100	445	3	37	2	1	0	1	1	0	2	157.5	22.5	1.81132881700512	-1.32327145304348	0.2	0	0	0	198.517024859786	198.616998260142	0.099973400356248	0.200009947642684
45004.25	100	446	3	38	2	1	0	1	1	0	2	157.5	112.5	0.794058866530576	-0.899924145196053	0.15	0	0	0	198.767021385487	198.867005269509	0.0999838840216398	0.150023125344887
45091.75	100	447	3	39	2	1	0	1	1	0	1	22.5	67.5	2.1010585780013	2.85955136730623	0.25	0	0	0	199.117029833375	199.217009085231	0.0999792518559843	0.250024563865736
45141.75	100	448	3	40	2	1	0	1	1	0	1	22.5	67.5	0.699394695829344	0.200054538565761	0.1	0	0	0	199.317031247541	199.417017325992	0.0999860784504563	0.100022162310779
45237.75	100	449	3	41	2	1	0	1	1	0	2	157.5	22.5	-1.8433295302249	-2.43379328209534	0.283333333333333	0	0	0	199.700379928574	199.800385511946	0.100005583371967	0.283362602582201
45316.75	100	450	3	42	2	1	0	1	1	0	2	67.5	22.5	-2.98180515169417	2.30245807529824	0.216666666666667	0	0	0	200.017083983403	200.117043486796	0.0999595033936203	0.216698471456766
45383.5	100	451	3	43	2	1	0	1	1	0	2	67.5	22.5	2.5794966504928	1.87596016691035	0.166666666666667	0	0	0	200.283739044797	200.38370634988	0.0999673050828278	0.166695558000356
45446	100	452	3	44	2	1	0	1	1	0	1	22.5	157.5	0.860835385346237	1.35006968527785	0.15	0	0	0	200.533766778186	200.633752612863	0.0999858346767724	0.15006042830646
45504.25	100	453	3	45	2	1	0	1	1	0	2	67.5	22.5	-2.97365369625894	1.57588457171374	0.133333333333333	0	0	0	200.76707721781	200.867058176314	0.0999809585046023	0.13332460494712
45600.25	100	454	3	46	2	1	0	1	1	0	2	67.5	22.5	-1.93962160295702	-0.328864894158627	0.283333333333333	0	0	0	201.150444428436	201.2504005183	0.0999560898635536	0.283386252122
45671	100	455	3	47	2	1	0	1	1	0	1	112.5	67.5	-3.0102063429325	3.07648685092398	0.183333333333333	0	0	0	201.433757050196	201.533742153319	0.09998510312289	0.183356531895697
45771	100	456	3	48	2	1	0	1	1	0	1	112.5	157.5	-2.77999279022073	2.48803474767233	0.3	0	0	0	201.833795718383	201.933754002443	0.0999582840595394	0.300053565064445
45837.75	100	457	3	49	2	1	0	1	1	0	1	112.5	67.5	0.517836721007203	0.575114796555373	0.166666666666667	0	0	0	202.100442490075	202.200453437166	0.100010947091505	0.1666884876322
45887.75	100	458	3	50	2	1	0	1	1	0	2	67.5	22.5	1.04020632353672	0.293012454109348	0.1	0	0	0	202.300449755741	202.400429982692	0.09998022695072	0.0999963185749948
45975.25	100	459	3	51	2	1	0	1	1	0	2	157.5	22.5	-1.31176494262216	-2.79017639062353	0.25	0	0	0	202.65046819998	202.750452084001	0.0999838840216398	0.250038217287511
46071	100	460	3	52	2	1	0	1	1	0	2	157.5	112.5	-1.06407211019454	1.31678469592186	0.283333333333333	0	0	0	203.03382736491	203.133795401314	0.0999680364038795	0.28337528090924
46146	100	461	3	53	2	1	0	1	1	0	1	112.5	157.5	0.783369164062155	-2.71053518274458	0.2	0	0	0	203.333813394653	203.433805080596	0.099991685943678	0.200017993338406
46237.75	100	462	3	54	2	1	0	1	1	0	1	112.5	67.5	-0.865106614908146	1.53675906361005	0.266666666666667	0	0	0	203.700487936381	203.800468407106	0.0999804707244039	0.266682855784893
46321	100	463	3	55	2	1	0	1	1	0	1	22.5	67.5	-1.12085462587023	-1.61941381456599	0.233333333333333	0	0	0	204.033830778208	204.133813930908	0.0999831527005881	0.233362371101975
46379.25	100	464	3	56	2	1	0	1	1	0	1	22.5	157.5	1.9574432755982	-0.00363738936359415	0.133333333333333	0	0	0	204.26717242552	204.367152896244	0.0999804707244039	0.133358494611457
46441.75	100	465	3	57	2	1	0	1	1	0	1	22.5	67.5	2.54082407788212	2.73839602037201	0.15	0	0	0	204.517178703565	204.617158199195	0.0999794956296682	0.150025807321072
46529.5	100	466	3	58	2	1	0	1	1	0	2	67.5	22.5	2.17247227181496	0.956982188486243	0.25	0	0	0	204.867188370554	204.967170791933	0.0999824213795364	0.250030171358958
46583.5	100	467	3	59	2	1	0	1	1	0	2	67.5	112.5	1.2646718154455	1.96293094854031	0.116666666666667	0	0	0	205.083879040321	205.183863899671	0.0999848593492061	0.116708248388022
46683.5	100	468	3	60	2	1	0	1	1	0	1	22.5	157.5	-2.96789547735536	3.07686251135958	0.3	0	0	0	205.483875041828	205.583853318356	0.0999782765284181	0.300011142157018
46737.75	100	469	3	61	2	1	0	1	1	0	1	22.5	67.5	2.62273647016659	2.64950804981002	0.116666666666667	0	0	0	205.700544744032	205.80052594631	0.0999812022782862	0.116691425675526
46796	100	470	3	62	2	1	0	1	1	0	2	157.5	22.5	1.81064778809209	0.720227715130726	0.133333333333333	0	0	0	205.933885416016	206.033863692544	0.0999782765284181	0.133359469706193
46862.75	100	471	3	63	2	1	0	1	1	0	1	22.5	67.5	-1.373364432111	-3.0644214909733	0.166666666666667	0	0	0	206.200584119186	206.300564590143	0.0999804709572345	0.166720426641405
46946	100	472	3	64	2	1	0	1	1	0	1	112.5	157.5	0.0330639141451883	1.39192140825433	0.233333333333333	0	0	0	206.533923547715	206.633907431969	0.0999838842544705	0.233358957571909
47017	100	473	3	65	2	1	0	1	1	0	2	157.5	22.5	-0.885058077797984	2.66767340005847	0.183333333333333	0	0	0	206.81725006667	206.917249310762	0.0999992440920323	0.183342634700239
47096	100	474	3	66	2	1	0	1	1	0	1	112.5	157.5	0.306511355408788	0.653475584979373	0.216666666666667	0	0	0	207.133916574763	207.233897289494	0.0999807147309184	0.216667264001444
47158.5	100	475	3	67	2	1	0	1	1	0	1	112.5	67.5	0.640695792308818	-1.61622713015649	0.15	0	0	0	207.383918951964	207.483901617117	0.0999826651532203	0.150021662469953
47208.5	100	476	3	68	2	1	0	1	1	0	1	112.5	157.5	-1.13415609436725	-1.18681832782105	0.1	0	0	0	207.583926948952	207.683906688355	0.0999797394033521	0.100025331834331
47283.5	100	477	3	69	2	1	0	1	1	0	1	22.5	67.5	0.92626514171883	-2.02790345688804	0.2	0	0	0	207.883935165359	207.983925144654	0.09998997929506	0.200028477003798
47375.25	100	478	3	70	2	1	0	1	1	0	2	157.5	22.5	2.6497561939383	2.45831499919779	0.266666666666667	0	0	0	208.25061165751	208.350598223507	0.0999865659978241	0.266686512855813
47458.5	100	479	3	71	2	1	0	1	1	0	2	67.5	112.5	1.80933461992869	0.145505628790313	0.233333333333333	0	0	0	208.58395474311	208.683939358918	0.0999846158083528	0.233356519602239
47521	100	480	3	72	2	1	0	1	1	0	2	67.5	112.5	2.42983794692721	2.99408990699913	0.15	0	0	0	208.833985889796	208.933970505372	0.0999846155755222	0.150046530878171
47617	100	481	3	73	2	1	0	1	1	0	1	112.5	67.5	-2.03813345015201	-1.98557525389686	0.283333333333333	0	0	0	209.217327500461	209.31731284759	0.0999853471294045	0.28335699508898
47696	100	482	3	74	2	1	0	1	1	0	1	22.5	157.5	-1.99616487768253	-1.95876497209321	0.216666666666667	0	0	0	209.534005224006	209.633990083355	0.0999848593492061	0.216692376416177
47796	100	483	3	75	2	1	0	1	1	0	2	157.5	22.5	0.582148362244951	1.86335783382037	0.3	0	0	0	209.933997080661	210.033969505923	0.0999724252615124	0.3000069973059
47871	100	484	3	76	2	1	0	1	1	0	2	157.5	112.5	1.65756980052763	-1.73551440677347	0.2	0	0	0	210.233998714248	210.333978941198	0.09998022695072	0.20002920832485
47954.5	100	485	3	77	2	1	0	1	1	0	1	22.5	157.5	-0.168910002833672	-2.10156889107276	0.233333333333333	0	0	0	210.567343994277	210.667328853626	0.0999848593492061	0.23336505307816
48025.25	100	486	3	78	2	1	0	1	1	0	2	157.5	112.5	0.657271898760103	-0.981288744281841	0.183333333333333	0	0	0	210.850690261694	210.950668050675	0.0999777889810503	0.183361408067867
48125.25	100	487	3	79	2	1	0	1	1	0	2	67.5	112.5	-0.95391250606684	1.42109265675137	0.3	0	0	0	211.250693333801	211.350684532197	0.0999911983963102	0.300025283126161
48179.5	100	488	3	80	2	1	0	1	1	0	1	22.5	157.5	1.69562971914986	1.3548061927448	0.116666666666667	0	0	0	211.467364742421	211.567343262723	0.099978520302102	0.116680210223421
48233.5	100	489	3	81	2	1	0	1	1	0	2	157.5	22.5	-1.14036285917214	1.82836649419117	0.116666666666667	0	0	0	211.684039808344	211.784017353551	0.0999775452073663	0.11669654562138
48300.25	100	490	3	82	2	1	0	1	1	3	2	67.5	112.5	2.22452747320383	0.844077985779446	0.166666666666667	0	0	0	211.950708766934	212.05069411383	0.0999853468965739	0.166691413382068
48362.75	100	491	3	83	2	1	0	1	1	3	2	157.5	22.5	-0.131248639374697	1.50933004073727	0.15	0	0	0	212.200718214503	212.300696491031	0.0999782765284181	0.150024100672454
48437.75	100	492	3	84	2	1	0	1	1	3	1	112.5	157.5	-2.77015811706211	2.42822644517085	0.2	0	0	0	212.500726674683	212.600709827384	0.0999831527005881	0.200030183652416
48487.75	100	493	3	85	2	1	0	1	1	1	-1	0	135	-0.0443465607295419	0.91084018001459	0.1	0	0	0	212.700731502147	212.800714898622	0.099983396474272	0.100021674763411
48567	100	494	3	86	2	1	0	1	1	3	1	22.5	67.5	1.06072295275099	3.04381482884309	0.216666666666667	0	0	0	213.01740922546	213.117394328816	0.0999851033557206	0.216694326838478
48654.5	100	495	3	87	2	1	0	1	1	3	2	67.5	22.5	2.19983301667031	1.91648795382972	0.25	0	0	0	213.367416210705	213.467398144305	0.0999819335993379	0.250021881889552
48746	100	496	3	88	2	1	0	1	1	3	1	22.5	157.5	1.5424298098167	2.52106680088573	0.266666666666667	0	0	0	213.73409294663	213.834079756634	0.0999868100043386	0.266694802325219
48800.25	100	497	3	89	2	1	0	1	1	3	2	157.5	112.5	1.67544116682931	1.52024219344022	0.116666666666667	0	0	0	213.950768987881	214.050747508183	0.099978520302102	0.11668923124671
48850.25	100	498	3	90	2	1	0	1	1	0	1	112.5	67.5	1.1329310207145	-1.13361813913472	0.1	0	0	0	214.150776009541	214.250756724272	0.0999807147309184	0.100028501357883
48946	100	499	3	91	2	1	0	1	1	0	1	112.5	157.5	2.77126346575167	-2.41793405161001	0.283333333333333	0	0	0	214.534113475354	214.634095896734	0.0999824213795364	0.283356751082465
49046	100	500	3	92	2	1	0	1	1	0	1	22.5	67.5	-2.98814728883154	-3.09946187989577	0.3	0	0	0	214.934128981782	215.03410969628	0.0999807144980878	0.300033085048199
49108.5	100	501	3	93	2	1	0	1	1	0	2	157.5	22.5	-1.10548337310848	1.15686213687824	0.15	0	0	0	215.184133065632	215.284113292582	0.09998022695072	0.150023369351402
49179.5	100	502	3	94	2	1	0	1	1	0	2	67.5	22.5	0.587501456916467	2.29906239268281	0.183333333333333	0	0	0	215.467473969096	215.567467361921	0.0999933928251266	0.183360676513985
49229.5	100	503	3	95	2	1	0	1	1	0	2	157.5	112.5	1.64423214529595	-1.2311590214104	0.1	0	0	0	215.667478309013	215.767466094112	0.0999877850990742	0.100010947091505
49287.75	100	504	3	96	2	1	0	1	1	0	1	22.5	67.5	-0.0510074546535213	2.38102036558872	0.133333333333333	0	0	0	215.900821662974	216.000797013752	0.0999753507785499	0.133355568861589
49375.25	100	505	3	97	2	1	0	1	1	0	1	22.5	157.5	0.209147797147237	0.98338552891894	0.25	0	0	0	216.250830598408	216.350811069366	0.0999804709572345	0.250033584656194
49454.5	100	506	3	98	2	1	0	1	1	0	2	67.5	112.5	-0.712772821270574	-0.705782429796193	0.216666666666667	0	0	0	216.567530508619	216.667512198444	0.099981689825654	0.216719439253211
49542	100	507	3	99	2	1	0	1	1	0	1	112.5	67.5	1.84106045205088	0.929005560431717	0.25	0	0	0	216.917526034638	217.017507724697	0.0999816900584847	0.25001383619383
49633.5	100	508	3	100	2	1	0	1	1	0	1	112.5	157.5	-0.517621236732058	-0.53170548759988	0.266666666666667	0	0	0	217.284219349734	217.384206647286	0.0999872975517064	0.266711625037715
49700.25	100	509	3	101	2	1	0	1	1	0	2	67.5	112.5	2.56924436195534	0.973314319434681	0.166666666666667	0	0	0	217.550865633879	217.650847811485	0.0999821776058525	0.166658986592665
49800.25	100	510	3	102	2	1	0	1	1	0	1	112.5	67.5	0.719938509500274	-2.92043294715171	0.3	0	0	0	217.950874557486	218.050862098811	0.0999875413253903	0.300026746001095
49892	100	511	3	103	2	1	0	1	1	0	2	67.5	22.5	0.337521569583331	0.571053853774824	0.266666666666667	0	0	0	218.317549099214	218.417539566057	0.0999904668424278	0.266687000403181
49958.75	100	512	3	104	2	1	0	1	1	0	2	157.5	112.5	-2.86648008707407	-1.44229182766525	0.166666666666667	0	0	0	218.58422927279	218.684213157045	0.0999838842544705	0.16668970673345
50012.75	100	513	3	105	2	1	0	1	1	0	2	67.5	22.5	-2.18227152115957	-1.88504813871732	0.116666666666667	0	0	0	218.800892148167	218.900894805789	0.100002657622099	0.116678991122171
50071.25	100	514	3	106	2	1	0	1	1	0	1	112.5	157.5	1.12251386331742	-2.6204994049481	0.133333333333333	0	0	0	219.034254275495	219.134229626274	0.0999753507785499	0.133359469706193
50162.75	100	515	3	107	2	1	0	1	1	0	1	22.5	67.5	-2.80409012793278	-1.55997666957797	0.266666666666667	0	0	0	219.400948809693	219.500897341408	0.0999485317151994	0.2667191834189
50225.25	100	516	3	108	2	1	0	1	1	0	1	112.5	157.5	1.75619946205885	1.22540151982332	0.15	0	0	0	219.650925586699	219.750905813882	0.0999802271835506	0.150028245290741
50321.25	100	517	3	109	2	1	0	1	1	0	2	67.5	112.5	-1.75272615044261	-0.747915660712215	0.283333333333333	0	0	0	220.034266222268	220.134248887189	0.0999826649203897	0.283360408386216
50412.75	100	518	3	110	2	1	0	1	1	0	2	67.5	112.5	-3.01260422404507	2.73819183902926	0.266666666666667	0	0	0	220.400939788669	220.500924160471	0.0999843718018383	0.266690901480615
50483.75	100	519	3	111	2	1	0	1	1	0	1	112.5	157.5	-1.57297392787146	1.03900452494114	0.183333333333333	0	0	0	220.684285080759	220.784267014591	0.0999819338321686	0.183360920287669
50533.75	100	520	3	112	2	1	0	1	1	0	2	67.5	112.5	-3.11968070384732	-2.38693430890309	0.1	0	0	0	220.884289908223	220.984272329602	0.0999824213795364	0.100022893631831
50604.5	100	521	3	113	2	1	0	1	1	0	1	22.5	157.5	2.66294895072646	0.839402061413894	0.183333333333333	0	0	0	221.167632274795	221.267624936067	0.0999926612712443	0.183359945192933
50692	100	522	3	114	2	1	0	1	1	0	1	112.5	157.5	-1.25836476249394	0.949683612211045	0.25	0	0	0	221.517650719034	221.617640698329	0.09998997929506	0.250025782966986
50792	100	523	3	115	2	1	0	1	1	0	2	157.5	112.5	-3.04737440871909	1.20382069958985	0.3	0	0	0	221.917653303361	222.017642063787	0.0999887604266405	0.300012605031952
50850.25	100	524	3	116	2	1	0	1	1	0	1	112.5	67.5	-0.85289667409661	2.73394389347898	0.133333333333333	0	0	0	222.151017868659	222.251000777585	0.0999829089269042	0.133375804871321
50950.25	100	525	3	117	2	1	0	1	1	0	2	67.5	22.5	-0.524801539622769	-1.13132597549938	0.3	0	0	0	222.551014113938	222.651011407608	0.0999972936697304	0.300013336353004
51029.5	100	526	3	118	2	1	0	1	1	0	1	112.5	67.5	-2.05836893369995	-3.09713426611748	0.216666666666667	0	0	0	222.867677940289	222.967659873888	0.0999819335993379	0.216666532680392
51108.75	100	527	3	119	2	1	0	1	1	0	2	157.5	22.5	-2.05420283117926	-0.563135334706502	0.216666666666667	0	0	0	223.184361758875	223.284342229832	0.0999804709572345	0.216701884986833
51175.25	100	528	3	120	2	1	0	1	1	0	1	112.5	157.5	-2.12072699524531	0.553916838403966	0.166666666666667	0	0	0	223.451037544059	223.551022159634	0.0999846155755222	0.166695314226672
51229.5	100	529	3	121	2	1	0	1	1	0	1	112.5	67.5	-2.53692720644276	-2.37490577273735	0.116666666666667	0	0	0	223.667709440459	223.767710878979	0.100001438520849	0.116687280824408
51304.5	100	530	3	122	2	1	0	1	1	0	2	67.5	112.5	1.11470844351232	-1.54932719416879	0.2	0	0	0	223.967716437764	224.067720802035	0.100004364270717	0.200005558785051
51371.25	100	531	3	123	2	1	0	1	1	0	1	22.5	157.5	-1.94821260470934	-2.40708049091416	0.166666666666667	0	0	0	224.234395636246	224.334375863429	0.0999802271835506	0.166674834210426
51446.25	100	532	3	124	2	1	0	1	1	3	2	67.5	112.5	0.2829099535866	-0.881133068147881	0.2	0	0	0	224.534397026058	224.634404803626	0.100007777567953	0.200021162629128
51504.5	100	533	3	125	2	1	0	1	1	3	1	112.5	157.5	2.38929940195133	0.685413932831719	0.133333333333333	0	0	0	224.767757446505	224.867734260391	0.0999768138863146	0.13335264287889
51554.5	100	534	3	126	2	1	0	1	1	3	1	22.5	157.5	2.34184223968157	0.361426589951355	0.1	0	0	0	224.967765931273	225.067743964028	0.0999780327547342	0.100031670881435
51608.75	100	535	3	127	2	1	0	1	1	3	2	157.5	112.5	1.88255730810232	-0.695428320071547	0.116666666666667	0	0	0	225.184416859876	225.28438830981	0.0999714499339461	0.116672895848751
53212.75	100	536	4	0	1	2	0	2	2	3	1	112.5	157.5	-1.02599118398443	2.10729551120242	0.2	0	0	0	231.601279366761	231.701255448861	0.0999760820996016	-1
53288	100	537	4	1	1	2	0	2	2	3	1	22.5	157.5	-0.501332809676269	-0.755054263856321	0.2	0	0	0	231.901300505036	232.00126854144	0.0999680364038795	0.200045056175441
53363	100	538	4	2	1	2	0	2	2	3	2	67.5	22.5	1.23446663564173	-2.14363181560065	0.2	0	0	0	232.201292386046	232.301273100777	0.0999807147309184	0.200023844605312
53438	100	539	4	3	1	2	0	2	2	3	2	67.5	112.5	1.42991671766976	2.04755330783605	0.2	0	0	0	232.501300602453	232.601264250465	0.0999636480119079	0.200027501676232
53513	100	540	4	4	1	2	0	2	2	0	2	157.5	22.5	-0.22900575495767	2.99674786779746	0.2	0	0	0	232.801288338844	232.901266371598	0.0999780327547342	0.200024088378996
53588	100	541	4	5	1	2	0	2	2	0	1	112.5	67.5	-2.39873579639743	-2.02242115405781	0.2	0	0	0	233.101298505673	233.201279464178	0.0999809585046023	0.200032134074718
53663	100	542	4	6	1	2	0	2	2	0	2	157.5	22.5	-2.54066325288462	1.60866310096432	0.2	0	0	0	233.401304527884	233.501286461484	0.0999819335993379	0.200025063706562
53738	100	543	4	7	1	2	0	2	2	0	2	157.5	112.5	-2.07623666520068	1.99795176352801	0.2	0	0	0	233.701309574768	233.801292727469	0.0999831527005881	0.20002311328426
53813	100	544	4	8	1	2	0	2	2	0	2	67.5	112.5	2.05070697351247	2.74711015002867	0.2	0	0	0	234.001340709161	234.101325812517	0.0999851033557206	0.200047981692478
53888	100	545	4	9	1	2	0	2	2	0	2	67.5	22.5	-0.0232691587533962	-1.83076545290714	0.2	0	0	0	234.301352582639	234.401329640299	0.0999770576599985	0.200026770122349
53963	100	546	4	10	1	2	0	2	2	0	1	112.5	157.5	0.907734277496536	-2.38460363997963	0.2	0	0	0	234.601337637287	234.701322984183	0.0999853468965739	0.200007996987551
54038	100	547	4	11	1	2	0	2	2	0	1	22.5	157.5	-0.851042260973642	-2.10784032161852	0.2	0	0	0	234.901346828789	235.001326568192	0.0999797394033521	0.200023844605312
54113	100	548	4	12	1	2	0	2	2	0	1	22.5	67.5	-0.823497976924356	-1.68855463565287	0.2	0	0	0	235.201376256533	235.301356239943	0.0999799834098667	0.200049688341096
54188	100	549	4	13	1	2	0	2	2	0	2	157.5	22.5	-2.03559052881462	2.51365920461365	0.2	0	0	0	235.501386179589	235.601364456117	0.0999782765284181	0.200029939645901
54263	100	550	4	14	1	2	0	2	2	0	2	157.5	112.5	2.9820680895339	2.57560065010905	0.2	0	0	0	235.801366114058	235.901349998312	0.0999838842544705	0.200001657940447
54338	100	551	4	15	1	2	0	2	2	0	1	22.5	67.5	0.663053938116464	-0.164749394181455	0.2	0	0	0	236.101378231542	236.201360408915	0.0999821773730218	0.200028233230114
54413	100	552	4	16	1	2	0	2	2	0	2	67.5	22.5	-2.33335723465396	-2.34050896981557	0.2	0	0	0	236.401385228848	236.501367650228	0.0999824213795364	0.200024819932878
54488	100	553	4	17	1	2	0	2	2	0	1	112.5	67.5	1.27337588271113	-0.92650014230125	0.2	0	0	0	236.701388569083	236.801377329277	0.0999887601938099	0.200020918855444
54563	100	554	4	18	1	2	0	2	2	0	1	22.5	67.5	0.615224534701686	-1.62638617058447	0.2	0	0	0	237.001403368311	237.10138237616	0.0999790078494698	0.200026039034128
54638	100	555	4	19	1	2	0	2	2	0	2	157.5	112.5	0.711691949115207	0.932242034329082	0.2	0	0	0	237.301412072266	237.401391567895	0.0999794956296682	0.200029696105048
54713	100	556	4	20	1	2	0	2	2	0	2	67.5	112.5	1.69586045982222	1.38231932335538	0.2	0	0	0	237.601416875375	237.701399540529	0.0999826651532203	0.200025307480246
54788	100	557	4	21	1	2	0	2	2	0	1	22.5	157.5	0.68094950111545	1.7347767733442	0.2	0	0	0	237.901428992627	238.001409951132	0.0999809585046023	0.200029452098534
54863	100	558	4	22	1	2	0	2	2	0	1	22.5	67.5	2.36545805178639	-0.395598142470478	0.2	0	0	0	238.201437452808	238.301414998015	0.0999775452073663	0.200027501676232
54938	100	559	4	23	1	2	0	2	2	0	2	157.5	112.5	2.95109316682678	-0.271083025642505	0.2	0	0	0	238.501439573942	238.601420044899	0.0999804709572345	0.200024575926363
55013	100	560	4	24	1	2	0	2	2	3	1	22.5	67.5	-0.586061356172245	-0.201784116397147	0.2	0	0	0	238.801453641849	238.901434600353	0.0999809585046023	0.200033596949652
55088	100	561	4	25	1	2	0	2	2	3	1	112.5	67.5	0.932105158215672	-0.815620375285589	0.2	0	0	0	239.101458688732	239.201435989933	0.0999773012008518	0.200024088378996
55163	100	562	4	26	1	2	0	2	2	3	2	157.5	112.5	-0.789413304221323	-0.282089109420481	0.2	0	0	0	239.401462516515	239.501468587201	0.100006070686504	0.200026526581496
55238	100	563	4	27	1	2	0	2	2	1	-1	0	45	-0.561850013017435	1.1640625919317	0.2	0	0	0	239.701498039532	239.801480217138	0.0999821776058525	0.200029452331364
55313	100	564	4	28	1	2	0	2	2	3	1	22.5	157.5	-0.841069938154882	1.3275926271487	0.2	0	0	0	240.001506743487	240.101486726664	0.099979983177036	0.200026526348665
55388	100	565	4	29	1	2	0	2	2	3	1	112.5	157.5	0.925333943383595	-1.09084605018545	0.2	1	0.5002456381917	1	240.301499599824	240.401476169704	0.0999765698798001	0.200012873159721
55463	100	566	4	30	1	2	0	2	2	3	2	67.5	112.5	-0.926737749465453	0.420027688043186	0.2	0	0	0	240.601499039214	240.701481948141	0.0999829089269042	0.200022869510576
55538	100	567	4	31	1	2	0	2	2	3	2	67.5	22.5	-0.929988980955577	-2.23028994821905	0.2	0	0	0	240.901559430873	241.001491627423	0.0999321965500712	0.200077482732013
55613	100	568	4	32	1	2	0	2	2	0	2	67.5	112.5	2.17890699513695	-2.85750545407231	0.2	0	0	0	241.201515715802	241.301498136949	0.0999824211467057	0.200024088378996
55688	100	569	4	33	1	2	0	2	2	0	1	112.5	157.5	1.88329948876064	-0.710177464160212	0.2	0	0	0	241.501546118874	241.601529027801	0.0999829089269042	0.200047981925309
55763	100	570	4	34	1	2	0	2	2	0	1	22.5	157.5	1.10726336747528	-0.884240261876089	0.2	0	0	0	241.801559455227	241.901537487982	0.0999780327547342	0.2000304274261
55838	100	571	4	35	1	2	0	2	2	0	1	22.5	67.5	2.15904187929367	-2.9373575606308	0.2	0	0	0	242.101547435392	242.201544485288	0.0999970498960465	0.200009947409853
55913	100	572	4	36	1	2	0	2	2	0	2	67.5	112.5	-0.715879094030229	-2.64213018989004	0.2	0	0	0	242.401572474511	242.501553920796	0.0999814462848008	0.200027989223599
55988	100	573	4	37	1	2	0	2	2	0	2	157.5	112.5	0.896333139380856	-0.466398990695553	0.2	0	0	0	242.701569231926	242.801538975211	0.0999697432853281	0.200015311129391
56063	100	574	4	38	1	2	0	2	2	0	1	22.5	157.5	-1.56302280685001	2.77896621589048	0.2	0	0	0	243.001569158863	243.101546947611	0.0999777887482196	0.200030183652416
56138	100	575	4	39	1	2	0	2	2	0	2	157.5	112.5	-1.16006592220408	2.12066132528654	0.2	0	0	0	243.30157396174	243.401557602221	0.0999836404807866	0.200027014128864
56213	100	576	4	40	1	2	0	2	2	0	2	67.5	112.5	-2.50923042211538	-2.95185109817289	0.2	0	0	0	243.601579740178	243.70153997466	0.0999602344818413	0.200022137956694
56288	100	577	4	41	1	2	0	2	2	0	2	67.5	22.5	1.87549923228305	-1.15151364904142	0.2	0	0	0	243.901589907007	244.001572815934	0.0999829089269042	0.200049932347611
56363	100	578	4	42	1	2	0	2	2	0	2	157.5	112.5	2.64705508867633	-0.825048808795754	0.2	0	0	0	244.201600073837	244.301582982764	0.0999829089269042	0.200027257902548
56438	100	579	4	43	1	2	0	2	2	0	1	112.5	67.5	-1.23954717324302	-1.18673422985734	0.2	0	0	0	244.501600244548	244.601589248748	0.0999890042003244	0.200017261784524
56513	100	580	4	44	1	2	0	2	2	0	1	22.5	67.5	-0.764530976504215	-2.28026248524871	0.2	0	0	0	244.801613824675	244.901595758507	0.0999819338321686	0.200024575926363
56588	100	581	4	45	1	2	0	2	2	0	2	67.5	112.5	-2.40623491621982	0.56779865776919	0.2	0	0	0	245.101644959301	245.201629574876	0.0999846155755222	0.200049200793728
56663	100	582	4	46	1	2	0	2	2	0	1	112.5	157.5	-2.24810591107443	2.13050609769868	0.2	0	0	0	245.401637084084	245.501632914878	0.0999958307947963	0.200007509207353
56738	100	583	4	47	1	2	0	2	2	0	1	112.5	67.5	0.868287079810885	-0.74331844432171	0.2	0	0	0	245.701651151991	245.801635036245	0.0999838842544705	0.20001823711209
56813	100	584	4	48	1	2	0	2	2	0	2	67.5	22.5	2.46316613249264	-2.03353673419046	0.2	0	0	0	246.001659855945	246.101639839122	0.099979983177036	0.200024819700047
56888	100	585	4	49	1	2	0	2	2	0	2	157.5	22.5	-2.61404723550329	-2.48010761467009	0.2	0	0	0	246.301672217203	246.40165805188	0.0999858346767724	0.200032378081232
56963	100	586	4	50	1	2	0	2	2	0	2	67.5	112.5	-1.54180986772844	-3.04634411985549	0.2	0	0	0	246.601684334455	246.70165407774	0.0999697432853281	0.200026282574981
57038	100	587	4	51	1	2	0	2	2	0	2	67.5	22.5	1.6279552040292	1.66709798936482	0.2	0	0	0	246.901676947018	247.001678873086	0.100001926068217	0.200022869277745
57113	100	588	4	52	1	2	0	2	2	0	1	112.5	67.5	-1.72232710912023	-1.69144235283476	0.2	0	0	0	247.201676873956	247.301657100907	0.09998022695072	0.199998000869527
57188	100	589	4	53	1	2	0	2	2	0	1	22.5	67.5	2.37305770218961	1.40734633039137	0.2	0	0	0	247.501693136059	247.601669462165	0.0999763261061162	0.200036035152152
57263	100	590	4	54	1	2	0	2	2	0	1	112.5	67.5	-0.924872553076067	1.82693563114167	0.2	0	0	0	247.801696720067	247.901679628994	0.0999829089269042	0.200027257902548
57338	100	591	4	55	1	2	0	2	2	0	2	67.5	112.5	-0.167011599213923	-2.61743288831512	0.2	0	0	0	248.101706399117	248.201691014925	0.0999846158083528	0.200026770122349
57413	100	592	4	56	1	2	0	2	2	0	2	67.5	112.5	-1.8745640894404	-1.95445057791204	0.2	0	0	0	248.401708764257	248.501691916957	0.0999831527005881	0.200017749331892
57488	100	593	4	57	1	2	0	2	2	3	2	67.5	112.5	-1.31479905470317	-1.15993784542214	0.2	0	0	0	248.701741605299	248.801729146624	0.0999875413253903	0.200049688341096
57563	100	594	4	58	1	2	0	2	2	3	1	112.5	157.5	-0.474129511528377	1.68949422705114	0.2	0	0	0	249.001729097916	249.101731511531	0.100002413615584	0.199999951291829
57638	100	595	4	59	1	2	0	2	2	3	2	157.5	22.5	-1.39353679927821	1.48809210658817	0.2	0	0	0	249.301758038113	249.401738752844	0.0999807147309184	0.200026526581496
57713	100	596	4	60	1	2	0	2	2	1	-1	0	135	1.43950261153788	-1.23865357829545	0.2	0	0	0	249.601746993605	249.701731852954	0.0999848593492061	0.200008240761235
57788	100	597	4	61	1	2	0	2	2	3	1	22.5	67.5	-2.95192070369018	-0.302191477143609	0.2	0	0	0	249.901774958475	250.001742751338	0.0999677928630263	0.200043105520308
57863	100	598	4	62	1	2	0	2	2	3	1	112.5	67.5	0.87203219871984	-0.910478263577383	0.2	0	0	0	250.20177000924	250.301741215168	0.0999712059274316	0.200027257902548
57938	100	599	4	63	1	2	0	2	2	3	2	157.5	112.5	1.90106821301962	-0.177754700440644	0.2	1	0.792135725961998	1	250.501770423725	250.601749187801	0.0999787640757859	0.20002920855768
58013	100	600	4	64	1	2	0	2	2	3	2	67.5	22.5	-1.09251412673494	1.84465997330861	0.2	0	0	0	250.801775714383	250.901761061279	0.0999853468965739	0.200026526581496
58088	100	601	4	65	1	2	0	2	2	0	2	157.5	22.5	-1.9382877611826	-1.49715228476292	0.2	0	0	0	251.101806848776	251.201790489256	0.0999836404807866	0.200045787496492
58163	100	602	4	66	1	2	0	2	2	0	2	157.5	112.5	-2.38819773459812	1.95084287879463	0.2	0	0	0	251.40181604051	251.501796755008	0.0999807144980878	0.20002555125393
58238	100	603	4	67	1	2	0	2	2	0	1	112.5	67.5	-2.65514547066701	2.6389164136703	0.2	0	0	0	251.701809871942	251.801786441822	0.0999765698798001	0.200013116933405
58313	100	604	4	68	1	2	0	2	2	0	2	157.5	112.5	1.83565821844888	0.634578956072977	0.2	0	0	0	252.001810774207	252.101791732479	0.0999809582717717	0.20002433238551
58388	100	605	4	69	1	2	0	2	2	0	1	22.5	67.5	0.64739918416214	2.88502498217622	0.2	0	0	0	252.301822891459	252.401826767949	0.100003876490518	0.200031158979982
58463	100	606	4	70	1	2	0	2	2	0	2	67.5	22.5	-3.04655287016205	2.75206274845321	0.2	0	0	0	252.601834764937	252.701812310144	0.0999775452073663	0.200007996987551
58538	100	607	4	71	1	2	0	2	2	0	1	22.5	157.5	-0.293453246107187	-2.0662931942202	0.2	0	0	0	252.901840299368	253.001836861717	0.0999965623486787	0.200027989223599
58613	100	608	4	72	1	2	0	2	2	0	2	157.5	22.5	0.620060542504024	3.08795169963766	0.2	0	0	0	253.201866801595	253.301844590576	0.0999777889810503	0.200029939878732
58688	100	609	4	73	1	2	0	2	2	0	1	112.5	67.5	-1.13490055964347	-1.88145810238795	0.2	0	0	0	253.501873067347	253.601852562977	0.0999794956296682	0.200028476770967
58763	100	610	4	74	1	2	0	2	2	0	2	157.5	22.5	-2.92270829848146	1.91417321783861	0.2	0	0	0	253.80188323441	253.90185102704	0.0999677926301956	0.200030671432614
