onset	duration	total_event_number	stream_number	event_num_per_stream	timing_predictability	target_col	target_ori	n_targets	n_distractors	is_target	ori_pair_num	att_ori	unatt_ori	gabor_phase_att	gabor_phase_unatt	blank_dur	response	rt	correct	time_stimon	time_stimoff	stim_dur	ISI_dur
12298	100	0	0	0	2	2	0	1	1	3	2	157.5	112.5	-2.65047982601542	-2.4192579318714	0.2	0	0	0	239.99770185072	240.097658671904	0.0999568211846054	-1
12360.5	100	1	0	1	2	2	0	1	1	3	2	67.5	112.5	2.05717138032956	1.96318588764299	0.15	0	0	0	240.24771007942	240.347699570935	0.0999894915148616	0.150051407516003
12460.5	100	2	0	2	2	2	0	1	1	3	2	67.5	22.5	-1.86023702200397	-2.35482233656353	0.3	0	0	0	240.64770022966	240.747684113681	0.0999838840216398	0.300000658724457
12531.5	100	3	0	3	2	2	0	1	1	3	1	112.5	67.5	0.369854648326305	0.948784277287178	0.183333333333333	0	0	0	240.931039426476	241.031015264802	0.0999758383259177	0.183355312794447
12602.25	100	4	0	4	2	2	0	1	1	0	2	157.5	22.5	1.60544940602716	1.68873697351419	0.183333333333333	0	0	0	241.214419583324	241.314390301704	0.0999707183800638	0.183404318522662
12669	100	5	0	5	2	2	0	1	1	0	2	157.5	22.5	2.55884342686436	0.78369087085538	0.166666666666667	0	0	0	241.481080008671	241.581058772746	0.0999787640757859	0.166689706966281
12744	100	6	0	6	2	2	0	1	1	0	2	67.5	22.5	0.606916492155676	1.92385503370637	0.2	0	0	0	241.781084080227	241.881040169857	0.099956089630723	0.200025307480246
12823	100	7	0	7	2	2	0	1	1	0	1	112.5	157.5	-1.78744195295998	0.572893449889141	0.216666666666667	0	0	0	242.09775936557	242.197745443787	0.0999860782176256	0.216719195712358
12885.5	100	8	0	8	2	2	0	1	1	0	2	67.5	22.5	-2.93621689345936	-3.09363707713482	0.15	0	0	0	242.347767837811	242.447751721833	0.0999838840216398	0.150022394023836
12939.75	100	9	0	9	2	2	0	1	1	0	2	67.5	112.5	-0.148930953803031	-1.45951820218828	0.116666666666667	0	0	0	242.564408038743	242.664423374459	0.100015335716307	0.116656316909939
13027.25	100	10	0	10	2	2	0	1	1	0	2	157.5	112.5	1.22920813038219	2.97841321687244	0.25	0	0	0	242.914433553815	243.014440599829	0.100007046014071	0.250010179355741
13081.5	100	11	0	11	2	2	0	1	1	0	2	157.5	22.5	2.38378308431062	1.58532276169694	0.116666666666667	0	0	0	243.131118615624	243.231080313213	0.099961697589606	0.116678015794605
13131.5	100	12	0	12	2	2	0	1	1	0	1	112.5	67.5	2.18649023970968	-1.37076454160376	0.1	0	0	0	243.331126856618	243.431116348132	0.0999894915148616	0.10004654340446
13198	100	13	0	13	2	2	0	1	1	0	1	112.5	157.5	-2.69693317054873	0.486719180298971	0.166666666666667	0	0	0	243.597800935153	243.697817733511	0.100016798358411	0.166684587020427
13248	100	14	0	14	2	2	0	1	1	0	2	157.5	112.5	-2.03520828010406	-0.707311168280179	0.1	0	0	0	243.797788695898	243.898486698512	0.100698002614081	0.0999709623865783
13327.25	100	15	0	15	2	2	0	1	1	0	2	67.5	112.5	0.866237335816058	0.732764905284696	0.216666666666667	0	0	0	244.114477146883	244.214464931749	0.0999877848662436	0.215990448370576
13423	100	16	0	16	2	2	0	1	1	0	2	157.5	112.5	1.39126919287398	0.171267844446003	0.283333333333333	0	0	0	244.497824121267	244.597800935153	0.0999768138863146	0.283359189517796
13514.75	100	17	0	17	2	2	0	1	1	0	1	112.5	67.5	-2.14564706675748	0.584997058294966	0.266666666666667	0	0	0	244.864506220911	244.96448279079	0.0999765698798001	0.26670528575778
13602.25	100	18	0	18	2	2	0	1	1	0	1	22.5	157.5	0.704327004828391	0.681109544575498	0.25	0	0	0	245.214509549085	245.314488800708	0.0999792516231537	0.250026758294553
13694	100	19	0	19	2	2	0	1	1	0	2	157.5	22.5	-2.47834867175811	0.972526666451939	0.266666666666667	0	0	0	245.581184822135	245.68116358621	0.0999787640757859	0.266696021426469
13777.25	100	20	0	20	2	2	0	1	1	0	1	112.5	67.5	-1.8007502063937	1.39059700181713	0.233333333333333	0	0	0	245.914514985867	246.014500089455	0.0999851035885513	0.233351399656385
13835.5	100	21	0	21	2	2	0	1	1	0	1	112.5	157.5	-0.0524303688296706	1.58834228202124	0.133333333333333	0	0	0	246.147857364733	246.247858803254	0.100001438520849	0.133357275277376
13894	100	22	0	22	2	2	0	1	1	0	1	22.5	157.5	-0.0180855668780495	3.03454354123399	0.133333333333333	0	0	0	246.3811892597	246.481178751215	0.0999894915148616	0.133330456446856
13981.5	100	23	0	23	2	2	0	1	1	0	1	22.5	67.5	-1.27596179285492	1.83614667649062	0.25	0	0	0	246.731202339754	246.831188905984	0.0999865662306547	0.25002358853817
14031.5	100	24	0	24	2	2	0	1	1	0	2	67.5	112.5	-1.1847949601292	-0.66574062752439	0.1	0	0	0	246.931214481592	247.03119251458	0.0999780329875648	0.100025575608015
14089.75	100	25	0	25	2	2	0	1	1	0	1	112.5	67.5	2.89857623003525	3.12055597067036	0.133333333333333	0	0	0	247.1645524716	247.264527334832	0.0999748632311821	0.13335995702073
14156.5	100	26	0	26	2	2	0	1	1	0	1	22.5	157.5	1.04150318852476	-2.42035058079817	0.166666666666667	0	0	0	247.43124215398	247.531224331819	0.0999821778386831	0.166714819148183
14206.5	100	27	0	27	2	2	0	1	1	0	1	22.5	67.5	0.000766240791480577	2.29024303982145	0.1	0	0	0	247.63123479113	247.731201364659	0.0999665735289454	0.100010459311306
14281.5	100	28	0	28	2	2	0	1	1	0	1	112.5	157.5	0.154944343129468	2.22170774942965	0.2	0	0	0	247.931212287396	248.031215676572	0.100003389175981	0.20001092273742
14360.5	100	29	0	29	2	2	0	1	1	0	1	22.5	67.5	0.554296615424979	-2.72591618175843	0.216666666666667	0	0	0	248.247923412826	248.347911197692	0.0999877848662436	0.216707736253738
14460.5	100	30	0	30	2	2	0	1	1	0	2	67.5	22.5	-1.43596308572326	-1.63070190097704	0.3	0	0	0	248.647939406801	248.747920609079	0.0999812022782862	0.300028209108859
14552.25	100	31	0	31	2	2	0	1	1	0	2	67.5	22.5	-1.83522729563315	0.88949548222767	0.266666666666667	0	0	0	249.014587129466	249.114569062833	0.0999819333665073	0.266666520386934
14631.5	100	32	0	32	2	2	0	1	1	0	2	67.5	22.5	2.07509786092976	-0.799952648255204	0.216666666666667	0	0	0	249.331261683255	249.431244592182	0.0999829089269042	0.216692620422691
14710.5	100	33	0	33	2	2	0	1	1	0	2	157.5	112.5	2.8196985112116	-0.357203684989365	0.216666666666667	0	0	0	249.647934774403	249.747928898316	0.0999941239133477	0.216690182220191
14810.5	100	34	0	34	2	2	0	1	1	0	1	112.5	157.5	2.84236091194683	2.54143513854906	0.3	0	0	0	250.047973929904	250.147956351284	0.0999824213795364	0.300045031588525
14873.25	100	35	0	35	2	2	0	1	1	0	1	22.5	67.5	1.52190881097054	-1.24238906490384	0.15	0	0	0	250.297976551112	250.397932640743	0.099956089630723	0.15002019982785
14956.5	100	36	0	36	2	2	0	1	1	0	2	67.5	112.5	-2.01103695796726	1.77336295674733	0.233333333333333	0	0	0	250.631292330101	250.731304740068	0.100012409966439	0.233359689358622
15027.25	100	37	0	37	2	2	0	1	1	0	1	22.5	67.5	-2.88212141505061	-2.41030846202195	0.183333333333333	0	0	0	250.914662978612	251.014645887539	0.0999829089269042	0.183358238544315
15110.75	100	38	0	38	2	2	0	1	1	0	1	22.5	67.5	0.418104262432208	-0.512634012980786	0.233333333333333	0	0	0	251.248002650682	251.348011891358	0.100009240675718	0.233356763143092
15210.75	100	39	0	39	2	2	0	1	1	0	2	157.5	22.5	2.49459104241836	-2.87392733129631	0.3	0	0	0	251.648019620217	251.747969370801	0.0999497505836189	0.300007728859782
15281.5	100	40	0	40	2	2	0	1	1	0	1	22.5	157.5	-0.116941203444734	3.14143870976935	0.183333333333333	0	0	0	251.931333948392	252.031341238413	0.100007290020585	0.183364577591419
15352.25	100	41	0	41	2	2	0	1	1	0	2	67.5	22.5	-2.70211382973477	-1.13485863454823	0.183333333333333	0	0	0	252.214684360661	252.314666050486	0.099981689825654	0.183343122247607
15414.75	100	42	0	42	2	2	0	1	1	0	2	157.5	112.5	-2.49405534584453	-3.13525415098465	0.15	0	0	0	252.464704535902	252.564691102132	0.0999865662306547	0.15003848541528
15489.75	100	43	0	43	2	2	0	1	1	0	2	157.5	22.5	1.13902839253516	-0.498996917114395	0.2	0	0	0	252.764715921599	252.864697367884	0.0999814462848008	0.200024819467217
15573.25	100	44	0	44	2	2	0	1	1	0	2	157.5	112.5	1.17749698429192	3.00526511292357	0.233333333333333	0	0	0	253.098066078033	253.198041428812	0.0999753507785499	0.23336871014908
15644	100	45	0	45	2	2	0	1	1	3	2	157.5	22.5	1.64816742874133	-2.40259583065306	0.183333333333333	0	0	0	253.38139454741	253.481375018135	0.0999804707244039	0.183353118598461
15706.5	100	46	0	46	2	2	0	1	1	3	2	67.5	22.5	-0.55427716941496	-0.55629265390915	0.15	0	0	0	253.631379126105	253.73136057239	0.0999814462848008	0.150004107970744
15760.75	100	47	0	47	2	2	0	1	1	3	1	22.5	157.5	-1.59037181418297	-0.0819086675697855	0.116666666666667	0	0	0	253.848066382576	253.9480585563	0.0999921737238765	0.116705810185522
15844	100	48	0	48	2	2	0	1	1	1	-1	0	135	2.66728137180767	-1.38499388396618	0.233333333333333	0	0	0	254.181395083666	254.2813723851	0.0999773014336824	0.233336527366191
15923.25	100	49	0	49	2	2	0	1	1	3	1	112.5	67.5	-0.0551278946161693	-1.70322496314804	0.216666666666667	0	0	0	254.498067199253	254.598054497037	0.0999872977845371	0.216694814153016
16014.75	100	50	0	50	2	2	0	1	1	3	1	22.5	67.5	-1.83971812734157	-1.34368253380172	0.266666666666667	1	0.575542335864156	1	254.864759539254	254.964750493877	0.0999909546226263	0.266705042216927
16102.25	100	51	0	51	2	2	0	1	1	3	2	157.5	112.5	-1.53876472395055	1.53984305451872	0.25	0	0	0	255.214777983259	255.314733585808	0.0999556025490165	0.250027489382774
16152.25	100	52	0	52	2	2	0	1	1	3	1	112.5	157.5	-1.92569529265438	-1.20067907764717	0.1	0	0	0	255.414787443355	255.514769377187	0.0999819338321686	0.1000538575463
16239.75	100	53	0	53	2	2	0	1	1	0	1	112.5	67.5	-0.027013330911712	-2.4128045234424	0.25	0	0	0	255.764776874334	255.864761245903	0.0999843715690076	0.250007497146726
16335.75	100	54	0	54	2	2	0	1	1	0	1	112.5	157.5	0.263526134298409	0.622985549532927	0.283333333333333	0	0	0	256.148124823812	256.248096517753	0.0999716939404607	0.283363577909768
16402.25	100	55	0	55	2	2	0	1	1	0	1	22.5	67.5	-2.53851545388487	-0.888683516079418	0.166666666666667	0	0	0	256.414814506192	256.514796927571	0.0999824213795364	0.166717988438904
16473.25	100	56	0	56	2	2	0	1	1	0	2	157.5	112.5	1.9954072110573	2.71984812646209	0.183333333333333	0	0	0	256.698136148974	256.798117594793	0.0999814458191395	0.183339221403003
16569	100	57	0	57	2	2	0	1	1	0	1	22.5	157.5	-1.15866383363708	-1.76651393982232	0.283333333333333	0	0	0	257.081500921398	257.181478710379	0.0999777889810503	0.283383326604962
16660.75	100	58	0	58	2	2	0	1	1	0	2	67.5	112.5	-0.927625452925306	2.14040749660208	0.266666666666667	0	0	0	257.448151569813	257.548157153185	0.100005583371967	0.266672859434038
16752.25	100	59	0	59	2	2	0	1	1	0	1	112.5	157.5	-2.17937255147337	-2.88567989648785	0.266666666666667	0	0	0	257.81484781066	257.91483145114	0.0999836404807866	0.266690657474101
16852.25	100	60	0	60	2	2	0	1	1	0	2	67.5	112.5	2.96745743658921	-1.85981720198234	0.3	0	0	0	258.214863804635	258.314829403069	0.0999655984342098	0.300032353494316
16948.25	100	61	0	61	2	2	0	1	1	0	2	157.5	22.5	-2.67850293316651	-0.206339513228039	0.283333333333333	0	0	0	258.598207853269	258.698186129797	0.0999782765284181	0.283378450199962
17039.75	100	62	0	62	2	2	0	1	1	0	2	157.5	112.5	1.37373164647422	-1.21852486533905	0.266666666666667	0	0	0	258.964883613866	259.064843604807	0.0999599909409881	0.266697484068573
17102.25	100	63	0	63	2	2	0	1	1	0	1	22.5	157.5	0.433862799412796	0.843366069491692	0.15	0	0	0	259.214865267277	259.314866949804	0.100001682527363	0.150021662469953
17169	100	64	0	64	2	2	0	1	1	0	2	67.5	112.5	-1.91373778903939	-3.12726200744078	0.166666666666667	0	0	0	259.481565433554	259.581530544441	0.099965110886842	0.166698483750224
17227.25	100	65	0	65	2	2	0	1	1	0	2	157.5	22.5	0.370999738820167	1.38307574566774	0.133333333333333	0	0	0	259.714900010265	259.81488950178	0.0999894915148616	0.133369465824217
17277.25	100	66	0	66	2	2	0	1	1	0	1	22.5	157.5	-0.41624584229639	-0.838774230699534	0.1	0	0	0	259.914909713902	260.014873605687	0.0999638917855918	0.100020212121308
17360.75	100	67	0	67	2	2	0	1	1	0	1	112.5	157.5	2.69970324799816	-0.822821017953769	0.233333333333333	0	0	0	260.248248654883	260.348236683756	0.0999880288727582	0.233375049196184
17414.75	100	68	0	68	2	2	0	1	1	0	1	22.5	67.5	2.16086036184159	3.09245595474147	0.116666666666667	0	0	0	260.464921038598	260.564893707633	0.0999726690351963	0.116684354841709
17469	100	69	0	69	2	2	0	1	1	0	2	67.5	22.5	-1.51148029867469	0.0741985204271427	0.116666666666667	0	0	0	260.681596592534	260.781576331705	0.0999797391705215	0.116702884901315
17556.5	100	70	0	70	2	2	0	1	1	0	2	67.5	112.5	-1.22990163788748	-2.11823471763213	0.25	0	0	0	261.031577489804	261.131591362413	0.100013872608542	0.250001158099622
17639.75	100	71	0	71	2	2	0	1	1	0	2	67.5	22.5	-0.288608923378102	2.21343709412211	0.233333333333333	0	0	0	261.364999325946	261.464926646557	0.0999273206107318	0.233407963532954
17714.75	100	72	0	72	2	2	0	1	1	0	1	112.5	67.5	0.611720185052479	0.905964714299802	0.2	0	0	0	261.664929523133	261.764915845823	0.0999863226898015	0.200002876576036
17802.25	100	73	0	73	2	2	0	1	1	0	2	67.5	22.5	2.64119940397085	-2.33614813114619	0.25	0	0	0	262.014963083901	262.114927950781	0.0999648668803275	0.250047238077968
17864.75	100	74	0	74	2	2	0	1	1	0	2	157.5	22.5	-2.50435310637047	-1.20042118737981	0.15	0	0	0	262.264948638156	262.364927158225	0.0999785200692713	0.150020687375218
17948.25	100	75	0	75	2	2	0	1	1	0	2	157.5	22.5	2.7280119193545	-1.42606101222551	0.233333333333333	0	0	0	262.598312935326	262.698270731606	0.099957796279341	0.233385777100921
18010.75	100	76	0	76	2	2	0	1	1	0	1	112.5	67.5	0.26429451642729	2.00306512186885	0.15	0	0	0	262.848299464677	262.94827969186	0.0999802271835506	0.15002873307094
18106.5	100	77	0	77	2	2	0	1	1	0	2	67.5	22.5	-0.29838071549674	-1.84485576778542	0.283333333333333	0	0	0	263.231662530452	263.331642513629	0.099979983177036	0.283382838591933
18206.5	100	78	0	78	2	2	0	1	1	0	2	157.5	112.5	-2.94280623638062	0.658280799574032	0.3	0	0	0	263.631657557096	263.731634858064	0.0999773009680212	0.300015043467283
18260.75	100	79	0	79	2	2	0	1	1	0	1	22.5	157.5	-0.311398813406227	2.63877264189169	0.116666666666667	0	0	0	263.848324089311	263.948306510691	0.0999824213795364	0.11668923124671
18319	100	80	0	80	2	2	0	1	1	0	2	67.5	22.5	2.3442204357038	-2.55120850704749	0.133333333333333	0	0	0	264.08166622417	264.181647426449	0.0999812022782862	0.133359713479877
18419	100	81	0	81	2	2	0	1	1	0	1	22.5	67.5	0.973819934601815	-1.34028753681887	0.3	0	0	0	264.481678073294	264.581682681572	0.100004608277231	0.300030646845698
18489.75	100	82	0	82	2	2	0	1	1	0	1	112.5	67.5	2.04300328393979	0.997209776460775	0.183333333333333	0	0	0	264.765036043711	264.865018952638	0.0999829089269042	0.183353362139314
18544	100	83	0	83	2	2	0	1	1	0	1	112.5	67.5	-0.614210922188329	-0.434059622970391	0.116666666666667	0	0	0	264.98171330383	265.081691336818	0.0999780329875648	0.116694351192564
18623.25	100	84	0	84	2	2	0	1	1	0	1	22.5	157.5	1.36218214508914	0.284162053824046	0.216666666666667	0	0	0	265.298384444322	265.398366134614	0.0999816902913153	0.216693107504398
18715	100	85	0	85	2	2	0	1	1	0	1	22.5	67.5	-0.810851635124564	-0.158903788182371	0.266666666666667	0	0	0	265.665064593777	265.76502994867	0.0999653548933566	0.266698459163308
18773.25	100	86	0	86	2	2	0	1	1	0	2	157.5	112.5	2.72165449513536	-2.12783804071306	0.133333333333333	0	0	0	265.898408922832	265.998365988024	0.0999570651911199	0.133378974162042
18840	100	87	0	87	2	2	0	1	1	0	2	67.5	22.5	-2.37631186287842	-0.880343213030952	0.166666666666667	0	0	0	266.165071786381	266.265055426862	0.0999836404807866	0.166705798357725
18935.75	100	88	0	88	2	2	0	1	1	0	1	22.5	67.5	-0.362647299947728	-1.99026241171721	0.283333333333333	0	0	0	266.548398768529	266.648379970808	0.0999812022782862	0.283343341667205
19035.75	100	89	0	89	2	2	0	1	1	0	1	112.5	67.5	0.571836348374069	0.246147430746538	0.3	0	0	0	266.948427928146	267.048413518816	0.0999855906702578	0.300047957338393
19085.75	100	90	0	90	2	2	0	1	1	0	2	157.5	22.5	-1.64090856003383	0.644708866250324	0.1	0	0	0	267.148432999384	267.24841883406	0.0999858346767724	0.100019480567425
19140	100	91	0	91	2	2	0	1	1	0	2	157.5	112.5	-1.19519808624532	-1.56585905176287	0.116666666666667	0	0	0	267.365085634869	267.46507537039	0.0999897355213761	0.116666800808161
19240	100	92	0	92	2	2	0	1	1	0	1	22.5	157.5	1.7839588285532	-2.87405533532334	0.3	0	0	0	267.765098702628	267.8650984345	0.0999997318722308	0.300023332238197
19335.75	100	93	0	93	2	2	0	1	1	0	1	112.5	67.5	0.844972080770124	0.110331485973672	0.283333333333333	0	0	0	268.148443239275	268.248443946242	0.100000706966966	0.28334480477497
19423.25	100	94	0	94	2	2	0	1	1	3	1	22.5	67.5	-0.352526539770379	-0.325656913783964	0.25	0	0	0	268.498468997888	268.598455563653	0.0999865657649934	0.250025051645935
19477.5	100	95	0	95	2	2	0	1	1	3	2	67.5	22.5	2.61542337519152	1.82809809679281	0.116666666666667	0	0	0	268.715140894055	268.815103810746	0.0999629166908562	0.116685330402106
19548.25	100	96	0	96	2	2	0	1	1	3	1	22.5	157.5	-0.836154943225702	1.73480134476224	0.183333333333333	0	0	0	268.998465706129	269.098451784812	0.0999860786832869	0.183361895382404
19631.5	100	97	0	97	2	2	0	1	1	2	-1	135	0	1.42165627295498	-1.02709000731171	0.233333333333333	0	0	0	269.331809523515	269.431811937131	0.100002413615584	0.233357738703489
19694	100	98	0	98	2	2	0	1	1	3	2	157.5	22.5	0.473766285972515	0.157038964332568	0.15	0	0	0	269.581838476006	269.681801879779	0.0999634037725627	0.150026538874954
19785.75	100	99	0	99	2	2	0	1	1	3	1	112.5	67.5	-0.552247001490319	-0.431004442456222	0.266666666666667	1	0.50884455954656	-1	269.948494731914	270.048475690186	0.0999809582717717	0.266692852135748
19860.75	100	100	0	100	2	2	0	1	1	3	1	112.5	157.5	-1.0920199823568	0.557916490919875	0.2	0	0	0	270.248503923416	270.348486344796	0.0999824213795364	0.200028233230114
19960.75	100	101	0	101	2	2	0	1	1	3	2	157.5	112.5	2.31417361839627	-0.17044362084341	0.3	0	0	0	270.64851577254	270.748517211061	0.100001438520849	0.300029427744448
20035.75	100	102	0	102	2	2	0	1	1	0	1	22.5	67.5	-2.67758154491098	-1.38328951814006	0.2	0	0	0	270.948522282299	271.048498364631	0.0999760823324323	0.200005071237683
20098.25	100	103	0	103	2	2	0	1	1	0	1	112.5	157.5	-1.35873086792993	1.50912089457021	0.15	0	0	0	271.198529535439	271.298506836873	0.0999773014336824	0.150031170807779
20156.5	100	104	0	104	2	2	0	1	1	0	1	22.5	67.5	-3.07412272839894	1.48010041277054	0.133333333333333	0	0	0	271.431866550352	271.531872621272	0.100006070919335	0.133359713479877
20210.75	100	105	0	105	2	2	0	1	1	0	1	112.5	157.5	3.13409445373178	0.544526846519996	0.116666666666667	0	0	0	271.648560633417	271.748541592155	0.099980958737433	0.11668801214546
20277.5	100	106	0	106	2	2	0	1	1	0	2	157.5	112.5	-3.035024509179	1.48711750568308	0.166666666666667	0	0	0	271.915237881709	272.015202748589	0.0999648668803275	0.166696289554238
20352.5	100	107	0	107	2	2	0	1	1	0	2	157.5	112.5	-1.63291958476664	-0.809590027024576	0.2	0	0	0	272.215240246616	272.315227300394	0.0999870537780225	0.200037498027086
20431.5	100	108	0	108	2	2	0	1	1	0	2	157.5	22.5	-2.40569140383771	-2.67206415302979	0.216666666666667	0	0	0	272.53190090321	272.631877960637	0.0999770574271679	0.216673602815717
20490	100	109	0	109	2	2	0	1	1	0	2	67.5	112.5	-1.95124647555325	-2.14179920510894	0.133333333333333	0	0	0	272.765221339185	272.865218145307	0.0999968061223626	0.133343378547579
20560.75	100	110	0	110	2	2	0	1	1	0	1	112.5	157.5	0.994042974453189	1.02794846400875	0.183333333333333	0	0	0	273.048574920744	273.148555391468	0.0999804707244039	0.18335677543655
20631.5	100	111	0	111	2	2	0	1	1	0	2	67.5	112.5	-2.46887956282891	0.498156558245365	0.183333333333333	0	0	0	273.331943862606	273.431918481831	0.0999746192246675	0.183388471137732
20719	100	112	0	112	2	2	0	1	1	0	2	157.5	22.5	-0.85226950957714	2.14900691614421	0.25	0	0	0	273.681949872524	273.781930099707	0.0999802271835506	0.250031390693039
20769	100	113	0	113	2	2	0	1	1	0	1	112.5	157.5	-2.15910481350212	1.52841252328397	0.1	0	0	0	273.881930806674	273.981914690696	0.0999838840216398	0.100000706966966
20819	100	114	0	114	2	2	0	1	1	0	2	67.5	22.5	0.941456140297536	2.29138936959045	0.1	0	0	0	274.08196611004	274.181924638338	0.0999585282988846	0.100051419343799
20894	100	115	0	115	2	2	0	1	1	0	2	67.5	112.5	-1.33847350849298	2.22100939019276	0.2	0	0	0	274.381942875218	274.481926759239	0.0999838840216398	0.200018236879259
20973.25	100	116	0	116	2	2	0	1	1	0	1	112.5	67.5	0.943576542896319	-2.34093719761944	0.216666666666667	0	0	0	274.698606457561	274.79859375488	0.0999872973188758	0.216679698321968
21035.75	100	117	0	117	2	2	0	1	1	0	2	67.5	112.5	-1.47464660333962	2.62290417835272	0.15	0	0	0	274.948641505092	275.048601008486	0.0999595033936203	0.150047750212252
21131.5	100	118	0	118	2	2	0	1	1	0	2	67.5	112.5	1.32413081500968	-2.82194254883824	0.283333333333333	0	0	0	275.331989455037	275.431969925761	0.0999804707244039	0.283388446550816
21219	100	119	0	119	2	2	0	1	1	0	1	112.5	157.5	1.90624376076662	2.29767021080149	0.25	0	0	0	275.681995464955	275.781981543172	0.0999860782176256	0.250025539193302
21294	100	120	0	120	2	2	0	1	1	0	1	22.5	157.5	-0.498820590255925	-2.22955219702228	0.2	0	0	0	275.981991978362	276.08199390443	0.100001926068217	0.200010435190052
21360.75	100	121	0	121	2	2	0	1	1	0	1	112.5	67.5	0.661823648824758	-1.97474265290268	0.166666666666667	0	0	0	276.248690437991	276.34866578877	0.0999753507785499	0.166696533560753
21444	100	122	0	122	2	2	0	1	1	0	1	22.5	157.5	-0.592197152347214	3.04021934599033	0.233333333333333	0	0	0	276.582010117825	276.68198473705	0.0999746192246675	0.233344329055399
21535.75	100	123	0	123	2	2	0	1	1	0	1	22.5	157.5	2.24441154915371	1.42190781566402	0.266666666666667	0	0	0	276.948683928233	277.048661717214	0.0999777889810503	0.266699191182852
21590	100	124	0	124	2	2	0	1	1	3	2	157.5	22.5	-1.62310567196443	0.0955634794188449	0.116666666666667	0	0	0	277.165366308298	277.265345803928	0.0999794956296682	0.116704591084272
21685.75	100	125	0	125	2	2	0	1	1	3	1	22.5	67.5	-0.377817156209479	1.47165230721947	0.283333333333333	0	0	0	277.548697435297	277.648684732616	0.0999872973188758	0.283351631369442
21773.25	100	126	0	126	2	2	0	1	1	3	1	112.5	157.5	1.66677269157042	2.92092178191238	0.25	0	0	0	277.898728069849	277.998712441418	0.0999843715690076	0.250043337233365
21823.25	100	127	0	127	2	2	0	1	1	3	1	22.5	157.5	-3.08677797468897	1.52899386073653	0.1	0	0	0	278.098717781249	278.198699714616	0.0999819333665073	0.100005339831114
28536	100	128	1	0	1	2	90	2	1	3	1	112.5	67.5	-1.58434512119442	3.05934278802676	0.2	0	0	0	304.949447539635	305.049432155211	0.0999846155755222	-1
28611	100	129	1	1	1	2	90	2	1	3	2	157.5	22.5	-2.79886762314166	0.651100341627476	0.2	0	0	0	305.249476967379	305.349437933881	0.099960966501385	0.200044812168926
28686	100	130	1	2	1	2	90	2	1	3	1	22.5	67.5	2.45119364266851	0.508226277865859	0.2	0	0	0	305.549436666071	305.649445174728	0.100008508656174	0.199998732190579
28761	100	131	1	3	1	2	90	2	1	3	2	157.5	112.5	0.478208225551328	-1.07012265600007	0.2	0	0	0	305.849472188856	305.949462412391	0.0999902235344052	0.200027014128864
28836	100	132	1	4	1	2	90	2	1	0	1	112.5	67.5	-2.85995221018838	-0.173720589281404	0.2	0	0	0	306.149492839817	306.249444541056	0.0999517012387514	0.2000304274261
28911	100	133	1	5	1	2	90	2	1	0	2	157.5	22.5	2.24715140380827	-0.67944972910371	0.2	0	0	0	306.449496667366	306.549456901848	0.0999602344818413	0.200052126310766
28986	100	134	1	6	1	2	90	2	1	0	1	22.5	157.5	-0.453619292297832	-0.851174744318854	0.2	0	0	0	306.749498544727	306.849451709073	0.0999531643465161	0.200041642878205
29061	100	135	1	7	1	2	90	2	1	0	2	67.5	22.5	0.340138950228404	2.42515576794445	0.2	0	0	0	307.049482624047	307.149465532973	0.0999829089269042	0.200030914973468
29136	100	136	1	8	1	2	90	2	1	0	2	67.5	112.5	1.28072475439925	2.86547146561197	0.2	0	0	0	307.349497423042	307.449483745731	0.0999863226898015	0.200031890068203
29211	100	137	1	9	1	2	90	2	1	0	1	22.5	67.5	-1.23203347191418	1.42991536558494	0.2	0	0	0	307.649504908361	307.749510247726	0.100005339365453	0.200021162629128
29286	100	138	1	10	1	2	90	2	1	0	2	157.5	112.5	2.69954206656301	-2.01323534360006	0.2	0	0	0	307.949517757166	308.049482867587	0.0999651104211807	0.200007509440184
29361	100	139	1	11	1	2	90	2	1	0	2	157.5	22.5	-2.83469911856207	-1.51925092325689	0.2	0	0	0	308.249509150628	308.34949303465	0.0999838840216398	0.200026283040643
29436	100	140	1	12	1	2	90	2	1	0	2	157.5	22.5	1.84491975418355	2.10446117214958	0.2	0	0	0	308.549547355622	308.649534896947	0.0999875413253903	0.200054320972413
29511	100	141	1	13	1	2	90	2	1	0	1	22.5	157.5	-1.01738630074898	1.5416937228791	0.2	0	0	0	308.849554596469	308.949539212044	0.0999846155755222	0.200019699521363
29586	100	142	1	14	1	2	90	2	1	0	2	157.5	22.5	-2.08808335767237	2.13025740573272	0.2	0	0	0	309.149565982632	309.249544502702	0.0999785200692713	0.200026770588011
29661	100	143	1	15	1	2	90	2	1	0	2	157.5	22.5	0.85373413613884	1.0435269610132	0.2	0	0	0	309.449573467486	309.549548818264	0.0999753507785499	0.200028964783996
29736	100	144	1	16	1	2	90	2	1	0	1	22.5	157.5	-1.15136637601183	-1.69892814533702	0.2	0	0	0	309.749574125744	309.849557034671	0.0999829089269042	0.200025307480246
29811	100	145	1	17	1	2	90	2	1	0	2	67.5	112.5	2.16254910086448	-0.0286015623982925	0.2	0	0	0	310.049582586158	310.149555498734	0.0999729125760496	0.20002555148676
29886	100	146	1	18	1	2	90	2	1	0	2	67.5	112.5	-0.769842716871179	-1.56937855680643	0.2	0	0	0	310.349582025316	310.44957736833	0.0999953430145979	0.200026526581496
29961	100	147	1	19	1	2	90	2	1	0	1	22.5	67.5	1.04379129695444	-1.88440471022436	0.2	0	0	0	310.649605357554	310.749569737352	0.0999643797986209	0.200027989223599
30036	100	148	1	20	1	2	90	2	1	0	1	22.5	67.5	-2.04031018051017	0.75460888227277	0.2	0	0	0	310.949616987258	311.049577709753	0.0999607224948704	0.200047249905765
30111	100	149	1	21	1	2	90	2	1	0	2	67.5	22.5	1.80734779107002	2.10746414215146	0.2	0	0	0	311.249620815273	311.349582025316	0.0999612100422382	0.200043105520308
30186	100	150	1	22	1	2	90	2	1	0	1	112.5	157.5	-2.5210168367412	-1.07398631154528	0.2	0	0	0	311.549624155276	311.649589510169	0.0999653548933566	0.200042129959911
30261	100	151	1	23	1	2	90	2	1	3	2	157.5	22.5	0.0339155416331445	-1.73796795260785	0.2	0	0	0	311.849638223182	311.949621619657	0.099983396474272	0.20004871301353
30336	100	152	1	24	1	2	90	2	1	3	1	112.5	67.5	-1.66764656363774	-1.04479783330218	0.2	0	0	0	312.14964156365	312.249627885874	0.0999863222241402	0.200019943993539
30411	100	153	1	25	1	2	90	2	1	3	2	67.5	22.5	2.31614079069533	-0.6366665123105	0.2	0	0	0	312.449654168449	312.549635370728	0.0999812022782862	0.200026282574981
30486	100	154	1	26	1	2	90	2	1	1	-1	90	45	0.436126522293688	0.574859249070553	0.2	0	0	0	312.749659703113	312.849651145283	0.0999914421699941	0.20002433238551
30561	100	155	1	27	1	2	90	2	1	3	2	157.5	112.5	2.81154270208318	2.97963255370084	0.2	1	0.300171324983239	1	313.049674746115	313.149639612995	0.0999648668803275	0.200023600831628
30636	100	156	1	28	1	2	90	2	1	3	2	67.5	112.5	-0.46842931842432	0.711018059159846	0.2	0	0	0	313.349677842576	313.449637589511	0.0999597469344735	0.200038229580969
30711	100	157	1	29	1	2	90	2	1	3	1	22.5	157.5	-0.65231922382187	0.461576977616804	0.2	0	0	0	313.649690447375	313.749666529708	0.0999760823324323	0.200052857864648
30786	100	158	1	30	1	2	90	2	1	3	1	112.5	157.5	-2.32443552623909	3.00273190433768	0.2	0	0	0	313.949669162743	314.049662555568	0.0999933928251266	0.200002633035183
30861	100	159	1	31	1	2	90	2	1	0	1	112.5	157.5	1.62739266827881	1.06776317857694	0.2	0	0	0	314.249698590487	314.349661507178	0.0999629166908562	0.200036034919322
30936	100	160	1	32	1	2	90	2	1	0	2	67.5	112.5	-0.965439267410853	-1.33986470401679	0.2	0	0	0	314.549729968887	314.649696298875	0.0999663299880922	0.200068461708724
31011	100	161	1	33	1	2	90	2	1	0	2	67.5	22.5	2.10314934071819	-0.4271898156359	0.2	0	0	0	314.84968991112	314.949698907323	0.100008996203542	0.199993612244725
31086	100	162	1	34	1	2	90	2	1	0	1	112.5	67.5	1.01019269420721	1.88898100817782	0.2	0	0	0	315.149725190364	315.249681767542	0.0999565771780908	0.200026283040643
31161	100	163	1	35	1	2	90	2	1	0	2	157.5	22.5	0.80214622816266	3.03578462131867	0.2	0	0	0	315.449706343468	315.549689740408	0.0999833969399333	0.200024575926363
31236	100	164	1	36	1	2	90	2	1	0	1	22.5	67.5	-0.784361212377163	-2.93881352825537	0.2	0	0	0	315.749708220828	315.849721849896	0.100013629067689	0.200018480420113
31311	100	165	1	37	1	2	90	2	1	0	1	22.5	67.5	2.87707998486605	3.01931596406016	0.2	0	0	0	316.049748620484	316.149734211154	0.0999855906702578	0.200026770588011
31386	100	166	1	38	1	2	90	2	1	0	1	22.5	67.5	-0.36411534872381	2.71418040828838	0.2	0	0	0	316.349758055527	316.449718290474	0.0999602349475026	0.200023844372481
31461	100	167	1	39	1	2	90	2	1	0	2	157.5	22.5	-0.285030731317662	-1.40699958204977	0.2	0	0	0	316.64976651594	316.749733577017	0.0999670610763133	0.200048225466162
31536	100	168	1	40	1	2	90	2	1	0	1	112.5	157.5	2.18129415823157	-2.6061632974074	0.2	0	0	0	316.949776438996	317.049738624133	0.0999621851369739	0.200042861979455
31611	100	169	1	41	1	2	90	2	1	0	2	67.5	112.5	1.57123003196856	2.24954793909985	0.2	0	0	0	317.249782461207	317.349762931932	0.0999804707244039	0.20004383707419
31686	100	170	1	42	1	2	90	2	1	0	2	157.5	112.5	2.01289700521309	2.02906064063282	0.2	0	0	0	317.549769222271	317.649748230353	0.0999790080823004	0.200006290338933
31761	100	171	1	43	1	2	90	2	1	0	1	22.5	67.5	2.15886864940703	-0.27849032620204	0.2	0	0	0	317.849803038407	317.949778145645	0.0999751072376966	0.200054808054119
31836	100	172	1	44	1	2	90	2	1	0	2	67.5	112.5	0.0380197928383006	-2.88114202612083	0.2	0	0	0	318.149794919882	318.24977612216	0.0999812022782862	0.200016774237156
31911	100	173	1	45	1	2	90	2	1	0	2	157.5	112.5	-0.0289472516402061	-2.42998341414975	0.2	0	0	0	318.449813863728	318.549797504209	0.0999836404807866	0.20003774156794
31986	100	174	1	46	1	2	90	2	1	0	2	157.5	112.5	3.04154005708717	-2.77321516171085	0.2	0	0	0	318.749822811689	318.849807427265	0.0999846155755222	0.200025307480246
32061	100	175	1	47	1	2	90	2	1	0	1	112.5	67.5	-2.57723674222262	-1.92281734811362	0.2	0	0	0	319.049811522942	319.149797114078	0.0999855911359191	0.200004095677286
32136	100	176	1	48	1	2	90	2	1	0	1	112.5	157.5	-1.21226332920847	-0.0452641387054227	0.2	0	0	0	319.349816082511	319.449820446782	0.100004364270717	0.200018968433142
32211	100	177	1	49	1	2	90	2	1	0	1	112.5	67.5	-1.26541739449145	-1.45794389814665	0.2	0	0	0	319.649844535161	319.749824518338	0.099979983177036	0.200024088378996
32286	100	178	1	50	1	2	90	2	1	0	1	22.5	157.5	2.71518065400909	0.317202788263995	0.2	0	0	0	319.949853970204	320.04983663559	0.0999826653860509	0.200029451865703
32361	100	179	1	51	1	2	90	2	1	0	1	112.5	157.5	0.789260096300918	-1.81331321766917	0.2	0	0	0	320.249867063016	320.349845339544	0.0999782765284181	0.2000304274261
32436	100	180	1	52	1	2	90	2	1	0	2	67.5	112.5	-2.321344087608	1.10132709795646	0.2	0	0	0	320.549867965281	320.649854531046	0.0999865657649934	0.200022625736892
32511	100	181	1	53	1	2	90	2	1	0	1	112.5	157.5	-2.51972539401578	0.0258198527328681	0.2	0	0	0	320.84988057008	320.94984543696	0.0999648668803275	0.200026039034128
32586	100	182	1	54	1	2	90	2	1	0	1	22.5	157.5	2.27358351083828	-0.2794248237343	0.2	0	0	0	321.149889030028	321.249847558327	0.0999585282988846	0.200043593067676
32661	100	183	1	55	1	2	90	2	1	0	2	67.5	22.5	2.11417903067965	-0.0519396913857624	0.2	0	0	0	321.44989310205	321.549879667815	0.0999865657649934	0.200045543722808
32736	100	184	1	56	1	2	90	2	1	0	2	67.5	112.5	-0.596588088729352	2.49133671045788	0.2	0	0	0	321.749872304965	321.849860821385	0.099988516420126	0.19999263714999
32811	100	185	1	57	1	2	90	2	1	3	2	67.5	112.5	1.74754802823388	0.769806415585923	0.2	0	0	0	322.049909046851	322.149889761582	0.0999807147309184	0.200048225466162
32886	100	186	1	58	1	2	90	2	1	3	2	157.5	112.5	-0.79684941340187	-1.86473440176168	0.2	0	0	0	322.349918969907	322.449897002894	0.0999780329875648	0.20002920832485
32961	100	187	1	59	1	2	90	2	1	3	1	22.5	67.5	2.84243972941826	-0.572457658146356	0.2	0	0	0	322.649926455226	322.749907901045	0.0999814458191395	0.200029452331364
33036	100	188	1	60	1	2	90	2	1	2	-1	45	90	2.59657427097753	-2.7576932301551	0.2	0	0	0	322.949930282775	323.049914166797	0.0999838840216398	0.200022381730378
33111	100	189	1	61	1	2	90	2	1	3	1	22.5	157.5	1.06729585646586	-2.59032451158367	0.2	0	0	0	323.24994191248	323.349900928326	0.0999590158462524	0.200027745682746
33186	100	190	1	62	1	2	90	2	1	3	2	157.5	22.5	-1.80614082684607	-3.09253893105755	0.2	0	0	0	323.54992891755	323.649911338929	0.0999824213795364	0.200027989223599
33261	100	191	1	63	1	2	90	2	1	3	2	67.5	22.5	-3.02388034665417	0.0803286443038052	0.2	0	0	0	323.849937865511	323.94991638558	0.0999785200692713	0.200026526581496
33336	100	192	1	64	1	2	90	2	1	3	1	112.5	157.5	2.26255883586015	-2.22422760520836	0.2	0	0	0	324.149939011317	324.249923870433	0.0999848591163754	0.200022625736892
33411	100	193	1	65	1	2	90	2	1	0	1	22.5	67.5	-2.72012002423577	-0.0738617792289791	0.2	0	0	0	324.449960149359	324.549919408746	0.0999592593871057	0.200036278925836
33486	100	194	1	66	1	2	90	2	1	0	2	157.5	112.5	-1.4478530495785	2.09581837960399	0.2	0	0	0	324.749957394321	324.849969072733	0.100011678412557	0.200037985574454
33561	100	195	1	67	1	2	90	2	1	0	1	112.5	67.5	0.76244824964029	3.09143190420242	0.2	0	0	0	325.050014372915	325.149978264701	0.0999638917855918	0.200045300181955
33636	100	196	1	68	1	2	90	2	1	0	2	157.5	22.5	1.45112005513345	-1.1887149504886	0.2	0	0	0	325.349999914877	325.449980385602	0.0999804707244039	0.200021650176495
33711	100	197	1	69	1	2	90	2	1	0	1	112.5	67.5	-0.125332848369636	0.496513144355784	0.2	0	0	0	325.649982287548	325.749975680374	0.0999933928251266	0.200001901946962
33786	100	198	1	70	1	2	90	2	1	0	1	112.5	67.5	-2.86524760557181	-3.02785455225732	0.2	0	0	0	325.949984164909	326.049989991821	0.10000582691282	0.200008484534919
33861	100	199	1	71	1	2	90	2	1	0	1	22.5	157.5	-2.75628808217787	2.00484020211248	0.2	0	0	0	326.250025295652	326.350008692127	0.099983396474272	0.2000353038311
33936	100	200	1	72	1	2	90	2	1	0	1	112.5	157.5	0.02004280723256	-0.933344731445054	0.2	0	0	0	326.550031561404	326.650017396081	0.0999858346767724	0.200022869277745
34011	100	201	1	73	1	2	90	2	1	0	1	22.5	157.5	2.77687404771353	-0.248093512344169	0.2	0	0	0	326.85004148446	326.950025124941	0.0999836404807866	0.200024088378996
34086	100	202	1	74	1	2	90	2	1	0	2	157.5	112.5	0.941964221295941	-0.57122394019281	0.2	0	0	0	327.150021418929	327.250005790498	0.0999843715690076	0.199996293988079
34161	100	203	1	75	1	2	90	2	1	0	2	157.5	22.5	2.99815975105957	-1.45697016828662	0.2	0	0	0	327.450048896018	327.550044239499	0.0999953434802592	0.200043105520308
34236	100	204	1	76	1	2	90	2	1	0	1	22.5	67.5	-2.15370009892728	-1.7220564060177	0.2	0	0	0	327.750048579182	327.850026855711	0.0999782765284181	0.200004339683801
34311	100	205	1	77	1	2	90	2	1	0	1	22.5	157.5	-1.54375365028238	-1.17430237070671	0.2	0	0	0	328.050072399434	328.150054576807	0.0999821773730218	0.200045543722808
34386	100	206	1	78	1	2	90	2	1	0	1	112.5	157.5	2.35650194525784	-2.25641409953818	0.2	0	0	0	328.350062086247	328.450037193485	0.0999751072376966	0.200007509440184
34461	100	207	1	79	1	2	90	2	1	0	2	67.5	112.5	-2.47014549512572	-0.0823515436064448	0.2	0	0	0	328.650086638052	328.750069546979	0.0999829089269042	0.200049444567412
34536	100	208	1	80	1	2	90	2	1	0	1	112.5	67.5	2.65421712830348	0.408052106342415	0.2	0	0	0	328.950094854459	329.050061183982	0.0999663295224309	0.200025307480246
34611	100	209	1	81	1	2	90	2	1	0	2	157.5	112.5	2.88263222593726	-0.877148044743028	0.2	0	0	0	329.250105508603	329.350063792896	0.0999582842923701	0.200044324621558
34686	100	210	1	82	1	2	90	2	1	0	1	22.5	157.5	3.09221730055098	0.686330388915162	0.2	0	0	0	329.550088612828	329.650065182708	0.0999765698798001	0.200024819932878
34761	100	211	1	83	1	2	90	2	1	0	2	67.5	22.5	2.2530837076883	1.47230549182384	0.2	0	0	0	329.850095854141	329.950076324865	0.0999804707244039	0.200030671432614
34836	100	212	1	84	1	2	90	2	1	0	1	112.5	157.5	-1.48829925939919	-0.929769618021638	0.2	0	0	0	330.150103582535	330.250111116562	0.1000075340271	0.200027257669717
34911	100	213	1	85	1	2	90	2	1	0	1	112.5	157.5	-1.5817836868005	-0.0739030351480148	0.2	0	0	0	330.450137399137	330.550119820517	0.0999824213795364	0.200026282574981
34986	100	214	1	86	1	2	90	2	1	0	2	67.5	22.5	-2.33304345208259	-1.02963005173861	0.2	0	0	0	330.750143664889	330.85012730537	0.0999836404807866	0.200023844372481
35061	100	215	1	87	1	2	90	2	1	0	1	112.5	157.5	-3.04948030064667	1.78793280109034	0.2	0	0	0	331.050154319499	331.150134058669	0.0999797391705215	0.200027014128864
35136	100	216	1	88	1	2	90	2	1	0	2	157.5	112.5	-2.80396970888044	-1.1156030378584	0.2	0	0	0	331.350162048358	331.450143494178	0.0999814458191395	0.200027989689261
35211	100	217	1	89	1	2	90	2	1	0	2	157.5	22.5	1.27832709989415	2.75600749041213	0.2	0	0	0	331.650164900813	331.75015658699	0.0999916861765087	0.200021406635642
35286	100	218	1	90	1	2	90	2	1	3	2	157.5	112.5	-2.20752880699339	-2.04963979982084	0.2	0	0	0	331.950160926674	332.05016431585	0.100003389175981	0.200004339683801
35361	100	219	1	91	1	2	90	2	1	3	2	67.5	22.5	2.38579215217202	-2.73693151788717	0.2	0	0	0	332.250170118175	332.350174238905	0.100004120729864	0.200005802325904
35436	100	220	1	92	1	2	90	2	1	3	1	22.5	157.5	1.30954205061393	2.43109093837726	0.2	0	0	0	332.550194425974	332.650173678063	0.099979252088815	0.200020187068731
35511	100	221	1	93	1	2	90	2	1	1	-1	90	45	-0.540619956133526	0.49680593824523	0.2	0	0	0	332.850198497996	332.950183601119	0.09998510312289	0.200024819932878
35586	100	222	1	94	1	2	90	2	1	3	1	22.5	67.5	2.63202038354174	-1.38932570468603	0.2	0	0	0	333.150185015053	333.250166461337	0.0999814462848008	0.200001413933933
35661	100	223	1	95	1	2	90	2	1	3	1	112.5	157.5	-1.55393873868246	-1.11969535766842	0.2	1	0.492159204557538	1	333.450217125006	333.550199789926	0.0999826649203897	0.200050663668662
35736	100	224	1	96	1	2	90	2	1	3	2	67.5	112.5	-2.49154751361506	-3.01086234877772	0.2	1	0.792183512356132	1	333.750208762009	333.850216783583	0.100008021574467	0.200008972082287
35811	100	225	1	97	1	2	90	2	1	3	2	157.5	22.5	-0.841823347115769	1.35887473415348	0.2	0	0	0	334.050259401556	334.150217197835	0.099957796279341	0.20004261797294
35886	100	226	1	98	1	2	90	2	1	0	1	112.5	157.5	-0.496101887294121	-2.89779025592213	0.2	0	0	0	334.350247869268	334.450224439148	0.0999765698798001	0.200030671432614
35961	100	227	1	99	1	2	90	2	1	0	1	112.5	67.5	-1.64094303242782	0.557196165747028	0.2	0	0	0	334.650247552432	334.750232411548	0.0999848591163754	0.20002311328426
36036	100	228	1	100	1	2	90	2	1	0	2	157.5	112.5	3.06682319401157	-2.29146928216405	0.2	0	0	0	334.950257475488	335.050239652861	0.0999821773730218	0.200025063939393
36111	100	229	1	101	1	2	90	2	1	0	2	67.5	22.5	1.12810785433903	-2.38736631047881	0.2	0	0	0	335.250262522139	335.350225926377	0.099963404238224	0.200022869277745
36186	100	230	1	102	1	2	90	2	1	0	1	22.5	67.5	2.88825798393573	0.0575058860942064	0.2	0	0	0	335.550253184047	335.650256085675	0.100002901628613	0.200027257669717
36261	100	231	1	103	1	2	90	2	1	0	1	112.5	67.5	0.272284706721791	-0.576379205769519	0.2	0	0	0	335.850291389041	335.95027088467	0.0999794956296682	0.200035303365439
36336	100	232	1	104	1	2	90	2	1	0	2	67.5	112.5	-0.768922517951268	-0.786338766856673	0.2	0	0	0	336.150292047299	336.250281051733	0.0999890044331551	0.200021162629128
36411.25	100	233	1	105	1	2	90	2	1	0	2	157.5	22.5	-1.22905896852199	2.81950007182484	0.2	0	0	0	336.450302458368	336.550288293045	0.0999858346767724	0.200021406635642
36486.25	100	234	1	106	1	2	90	2	1	0	2	157.5	22.5	-0.828138423345432	2.12462845748126	0.2	0	0	0	336.750301165972	336.850277248304	0.0999760823324323	0.200012872926891
36561.25	100	235	1	107	1	2	90	2	1	0	2	157.5	112.5	-0.306521766506108	0.169473764274489	0.2	0	0	0	337.05030158069	337.150279125664	0.0999775449745357	0.20002433238551
36636.25	100	236	1	108	1	2	90	2	1	0	2	67.5	22.5	-2.93814305438258	-0.89687888196279	0.2	0	0	0	337.350325400475	337.45030977251	0.0999843720346689	0.200046274811029
36711.25	100	237	1	109	1	2	90	2	1	0	2	157.5	22.5	-1.24685911582796	1.30317215832987	0.2	0	0	0	337.65033703018	337.750325547066	0.0999885168857872	0.200027257669717
36786.25	100	238	1	110	1	2	90	2	1	0	1	22.5	157.5	-1.87956360263623	-1.64855171683139	0.2	0	0	0	337.950346953236	338.050327424426	0.0999804711900651	0.200021406169981
36861.25	100	239	1	111	1	2	90	2	1	0	2	67.5	112.5	1.35030833392418	2.89121086983125	0.2	0	0	0	338.250342979562	338.350318573881	0.0999755943194032	0.200015555135906
36936.25	100	240	1	112	1	2	90	2	1	0	1	112.5	67.5	-2.00536076707575	-2.69941573248964	0.2	0	0	0	338.550357291009	338.650318013038	0.0999607220292091	0.200038717128336
37011.25	100	241	1	113	1	2	90	2	1	0	1	112.5	67.5	-1.77608669613922	-0.45135199755394	0.2	0	0	0	338.850337469485	338.950329399202	0.0999919297173619	0.200019456446171
37086.25	100	242	1	114	1	2	90	2	1	0	2	67.5	22.5	1.41765296167059	0.144818087304201	0.2	0	0	0	339.150375430472	339.250360290054	0.0999848595820367	0.200046031270176
37161.25	100	243	1	115	1	2	90	2	1	0	2	67.5	22.5	1.15378215688421	-0.773635819620218	0.2	0	0	0	339.450384865981	339.550350220408	0.0999653544276953	0.200024575926363
37236.25	100	244	1	116	1	2	90	2	1	0	1	22.5	157.5	-2.42585037767506	1.07230622591077	0.2	0	0	0	339.750400152523	339.850375503767	0.0999753512442112	0.20004993211478
37311.25	100	245	1	117	1	2	90	2	1	0	1	112.5	67.5	-3.08372136546717	2.72996022943253	0.2	0	0	0	340.050384231843	340.150363971479	0.0999797396361828	0.200008728075773
37386.25	100	246	1	118	1	2	90	2	1	0	2	67.5	22.5	1.37887676824821	-2.05146662922936	0.2	0	0	0	340.350407564547	340.450394618325	0.0999870537780225	0.200043593067676
37461.25	100	247	1	119	1	2	90	2	1	0	1	22.5	67.5	-2.15072076270091	-0.435391001882409	0.2	0	0	0	340.650415780954	340.750387962442	0.0999721814878285	0.200021162629128
37536.25	100	248	1	120	1	2	90	2	1	0	2	157.5	112.5	1.50896575249397	1.51952595273004	0.2	0	0	0	340.950405223761	341.050389595795	0.0999843720346689	0.200017261318862
37611.25	100	249	1	121	1	2	90	2	1	0	2	67.5	112.5	2.0860086061251	-2.00659798684017	0.2	0	0	0	341.250435383059	341.350416585337	0.0999812022782862	0.200045787263662
37686.25	100	250	1	122	1	2	90	2	1	0	2	67.5	112.5	-2.67394099836174	2.46988085495415	0.2	0	0	0	341.550439698622	341.650415780954	0.0999760823324323	0.20002311328426
37761.25	100	251	1	123	1	2	90	2	1	0	2	67.5	22.5	0.534013444084958	-1.03909596120726	0.2	0	0	0	341.850429872982	341.950409125071	0.099979252088815	0.200014092028141
37836.25	100	252	1	124	1	2	90	2	1	0	2	157.5	112.5	2.81554504590884	0.41104942307707	0.2	0	0	0	342.150460763834	342.250445866957	0.09998510312289	0.200051638763398
37911.25	100	253	1	125	1	2	90	2	1	0	2	157.5	112.5	-2.90587802040296	-2.82766923948264	0.2	0	0	0	342.450464591384	342.550446525216	0.0999819338321686	0.200018724426627
37986.25	100	254	1	126	1	2	90	2	1	0	1	22.5	157.5	1.08063094982732	-1.23670892833421	0.2	0	0	0	342.750471101142	342.850425728131	0.0999546269886196	0.200024575926363
38061.25	100	255	1	127	1	2	90	2	1	0	1	112.5	157.5	-0.573657388553111	0.420448578464724	0.2	0	0	0	343.050451523159	343.150433944538	0.0999824213795364	0.200025795027614
38136.25	100	256	1	128	1	2	90	2	1	0	2	67.5	22.5	-2.01134523236323	1.75826217456557	0.2	0	0	0	343.350482658017	343.450441917405	0.0999592593871057	0.200048713479191
38211.25	100	257	1	129	1	2	90	2	1	0	1	22.5	67.5	1.59731443474019	0.13064996135975	0.2	0	0	0	343.650467468426	343.750479390845	0.100011922419071	0.200025551021099
38286.25	100	258	1	130	1	2	90	2	1	0	1	22.5	157.5	0.919312454145217	-0.937038770692634	0.2	0	0	0	343.95050372323	344.050483706407	0.099979983177036	0.20002433238551
38361.25	100	259	1	131	1	2	90	2	1	0	1	22.5	67.5	2.80135626222975	0.70157579597527	0.2	0	0	0	344.250488046091	344.350477294065	0.0999892479740083	0.200004339683801
38436.25	100	260	1	132	1	2	90	2	1	3	1	22.5	157.5	-2.41084000977244	-2.21766364714876	0.2	0	0	0	344.550488460343	344.650501601864	0.100013141520321	0.200011166278273
38511.25	100	261	1	133	1	2	90	2	1	3	1	112.5	157.5	0.058818641540157	-0.58930151160059	0.2	0	0	0	344.850499846507	344.950481536333	0.099981689825654	0.199998244643211
38586.25	100	262	1	134	1	2	90	2	1	3	2	67.5	112.5	-1.06463512298484	-0.263488467322905	0.2	0	0	0	345.150530737359	345.25049267849	0.0999619411304593	0.200049201026559
38661.25	100	263	1	135	1	2	90	2	1	3	2	67.5	22.5	1.58384544382567	-2.91072415492405	0.2	0	0	0	345.450540416408	345.550505039748	0.0999646233394742	0.200047737918794
43090.5	100	264	2	0	2	1	0	2	1	3	1	22.5	67.5	-2.84071543081551	3.12901010755915	0.183333333333333	0	0	0	363.167693227064	363.26763737062	0.0999441435560584	-1
43173.75	100	265	2	1	2	1	0	2	1	3	2	157.5	112.5	-2.77756013524408	-1.66960326065672	0.233333333333333	0	0	0	363.501042408403	363.601009469479	0.0999670610763133	0.233405037783086
43248.75	100	266	2	2	2	1	0	2	1	3	1	112.5	67.5	-0.779460913826476	-1.11102908967529	0.2	0	0	0	363.801034045406	363.90101744188	0.099983396474272	0.200024575926363
43344.5	100	267	2	3	2	1	0	2	1	3	2	157.5	22.5	-0.102720060388759	0.869746074980444	0.283333333333333	0	0	0	364.184377362952	364.28435856523	0.0999812022782862	0.283359921071678
43423.75	100	268	2	4	2	1	0	2	1	0	2	67.5	22.5	-1.59660563782619	1.96382942794379	0.216666666666667	0	0	0	364.501028998755	364.601006787736	0.0999777889810503	0.216670433524996
43503	100	269	2	5	2	1	0	2	1	0	1	22.5	67.5	1.76112066324804	-2.28068912923519	0.216666666666667	0	0	0	364.817731590476	364.917716206051	0.0999846155755222	0.216724802739918
43573.75	100	270	2	6	2	1	0	2	1	0	1	22.5	67.5	-2.80327229839112	0.977532505845412	0.183333333333333	0	0	0	365.101072737947	365.201055890881	0.0999831529334188	0.183356531895697
43673.75	100	271	2	7	2	1	0	2	1	0	1	22.5	67.5	-0.631763093923083	2.71458888616538	0.3	0	0	0	365.501079711132	365.601061400957	0.099981689825654	0.300023820251226
43773.75	100	272	2	8	2	1	0	2	1	0	2	157.5	22.5	0.240235068139638	2.83731453999149	0.3	0	0	0	365.901068398263	366.001047162339	0.0999787640757859	0.3000069973059
43853	100	273	2	9	2	1	0	2	1	0	2	67.5	112.5	0.569421472044469	2.48975066613263	0.216666666666667	0	0	0	366.217768308241	366.317754142918	0.0999858346767724	0.216721145901829
43953	100	274	2	10	2	1	0	2	1	0	2	157.5	112.5	-2.2601082748989	-3.03494339632231	0.3	0	0	0	366.617767723277	366.717763066292	0.0999953430145979	0.300013580359519
44036.25	100	275	2	11	2	1	0	2	1	0	2	67.5	22.5	-1.63596692496714	-2.01905731121238	0.233333333333333	0	0	0	366.951126168948	367.051085672341	0.0999595033936203	0.233363102655858
44119.75	100	276	2	12	2	1	0	2	1	0	1	112.5	67.5	-0.573049389951644	-0.562147536815191	0.233333333333333	0	0	0	367.284436827991	367.384418030269	0.0999812022782862	0.233351155649871
44219.75	100	277	2	13	2	1	0	2	1	0	1	112.5	157.5	-1.3581245863555	-0.442336615443081	0.3	0	0	0	367.684466719162	367.784430854488	0.0999641353264451	0.300048688892275
44294.75	100	278	2	14	2	1	0	2	1	0	1	22.5	67.5	-1.26640140306143	2.09299019197177	0.2	0	0	0	367.984481518157	368.084450773895	0.0999692557379603	0.200050663668662
44382.25	100	279	2	15	2	1	0	2	1	3	1	22.5	157.5	-2.35959134509724	0.690829400340271	0.25	0	0	0	368.334489966277	368.43447604496	0.0999860786832869	0.250039192382246
44440.5	100	280	2	16	2	1	0	2	1	3	1	22.5	67.5	2.59186046180803	3.06240049641767	0.133333333333333	0	0	0	368.567816009745	368.667813790962	0.0999977812170982	0.133339964784682
44503	100	281	2	17	2	1	0	2	1	3	2	67.5	22.5	-2.39542855096531	0.689572447356821	0.15	0	0	0	368.817835697439	368.917795444373	0.0999597469344735	0.150021906476468
44569.75	100	282	2	18	2	1	0	2	1	1	-1	0	135	-1.01973138958713	-3.00138751330293	0.166666666666667	0	0	0	369.084489783272	369.184469522908	0.0999797396361828	0.166694338899106
44623.75	100	283	2	19	2	1	0	2	1	3	1	112.5	67.5	-1.10061982622198	2.46291729638117	0.116666666666667	0	0	0	369.301183622796	369.401166044176	0.0999824213795364	0.116714099887758
44673.75	100	284	2	20	2	1	0	2	1	3	2	157.5	112.5	-2.52038151255563	2.34272798770049	0.1	0	0	0	369.501164069399	369.601171358954	0.100007289554924	0.0999980252236128
44753	100	285	2	21	2	1	0	2	1	3	1	112.5	157.5	-2.62132138818411	-2.97886184697257	0.216666666666667	0	0	0	369.817865686025	369.917835916858	0.099970230832696	0.216694327071309
44853	100	286	2	22	2	1	0	2	1	3	2	157.5	22.5	1.23354064538228	1.93279967126674	0.3	0	0	0	370.217851203866	370.317830943037	0.0999797391705215	0.300015287008137
44948.75	100	287	2	23	2	1	0	2	1	0	2	157.5	112.5	-2.95948495009806	1.96538203840219	0.283333333333333	0	0	0	370.601188181899	370.70117377257	0.0999855906702578	0.283357238862664
45036.25	100	288	2	24	2	1	0	2	1	0	2	157.5	22.5	0.217959473413567	2.8373704223508	0.25	0	0	0	370.951229544356	371.051186365541	0.0999568211846054	0.25005577178672
45111.25	100	289	2	25	2	1	0	2	1	0	2	67.5	22.5	-0.199274530515243	-0.0930213376765114	0.2	0	0	0	371.251208503265	371.351187998895	0.0999794956296682	0.200022137723863
45198.75	100	290	2	26	2	1	0	2	1	0	1	22.5	157.5	2.93330762362146	2.24180628423271	0.25	0	0	0	371.601249622181	371.701214245055	0.0999646228738129	0.250061623286456
45294.75	100	291	2	27	2	1	0	2	1	0	1	112.5	67.5	-3.1122513702041	1.74713852004719	0.283333333333333	0	0	0	371.984587819315	372.084555855952	0.0999680366367102	0.283373574260622
45373.75	100	292	2	28	2	1	0	2	1	0	1	112.5	157.5	1.52540814413196	2.42433588637378	0.216666666666667	0	0	0	372.301263592206	372.401254059281	0.0999904670752585	0.216707736253738
45436.25	100	293	2	29	2	1	0	2	1	0	2	67.5	22.5	-1.00781057212515	-0.279775246994047	0.15	0	0	0	372.551271820907	372.651226935443	0.0999551145359874	0.15001776162535
45490.5	100	294	2	30	2	1	0	2	1	0	2	67.5	112.5	-2.93521902928626	1.68684917633408	0.116666666666667	0	0	0	372.767916898243	372.867903464474	0.0999865662306547	0.116689962800592
45540.5	100	295	2	31	2	1	0	2	1	0	2	157.5	22.5	-2.10254051468874	-1.11454049497271	0.1	0	0	0	372.967912948225	373.067932672799	0.10001972457394	0.10000948375091
45615.5	100	296	2	32	2	1	0	2	1	0	2	157.5	112.5	-1.83068855689792	-1.24621303058426	0.2	0	0	0	373.267957492266	373.367942107841	0.0999846155755222	0.200024819467217
45690.5	100	297	2	33	2	1	0	2	1	0	2	67.5	112.5	2.4020519011669	2.94305405342887	0.2	0	0	0	373.567969365977	373.667917653918	0.0999482879415154	0.200027258135378
45757.25	100	298	2	34	2	1	0	2	1	0	2	157.5	22.5	2.70971452482144	0.382755532961072	0.166666666666667	0	0	0	373.834639787208	373.934602703899	0.0999629166908562	0.166722133290023
45807.25	100	299	2	35	2	1	0	2	1	0	1	112.5	157.5	-1.41622791530737	-1.61994894194402	0.1	0	0	0	374.034619989805	374.134598754346	0.0999787645414472	0.100017285905778
45873.75	100	300	2	36	2	1	0	2	1	0	1	112.5	157.5	2.93297256999664	0.0682338621518204	0.166666666666667	0	0	0	374.30129114259	374.401275514625	0.0999843720346689	0.166692388243973
45948.75	100	301	2	37	2	1	0	2	1	0	1	112.5	157.5	0.59629971313103	-1.78389731496556	0.2	0	0	0	374.601299846545	374.701295433566	0.0999955870211124	0.200024331919849
46003	100	302	2	38	2	1	0	2	1	0	2	157.5	112.5	0.73459377891956	2.26408939317534	0.116666666666667	0	0	0	374.817986371927	374.917958796956	0.0999724250286818	0.116690938360989
46103	100	303	2	39	2	1	0	2	1	0	2	67.5	22.5	-2.03862904188395	-0.759634474114198	0.3	0	0	0	375.217980179004	375.317969426978	0.0999892479740083	0.300021382048726
46178	100	304	2	40	2	1	0	2	1	0	1	112.5	67.5	2.61908619864249	-1.91952188831439	0.2	0	0	0	375.517991321161	375.618003974669	0.100012653507292	0.20002189418301
46232.25	100	305	2	41	2	1	0	2	1	0	2	157.5	22.5	-2.25025521046339	1.98199602496448	0.116666666666667	0	0	0	375.734688817523	375.834674408194	0.0999855906702578	0.116684842854738
46290.5	100	306	2	42	2	1	0	2	1	0	1	22.5	67.5	-0.275434594679985	0.518167039959835	0.133333333333333	0	0	0	375.968041436281	376.068006790709	0.0999653544276953	0.133367028087378
46348.75	100	307	2	43	2	1	0	2	1	0	2	157.5	112.5	-1.36051567218539	0.241382847809695	0.133333333333333	0	0	0	376.201366016641	376.301347950473	0.0999819338321686	0.133359225932509
46411.25	100	308	2	44	2	1	0	2	1	0	1	112.5	157.5	-0.601715121909192	-2.24847256276967	0.15	0	0	0	376.451371807139	376.55135544762	0.0999836404807866	0.150023856665939
46503	100	309	2	45	2	1	0	2	1	0	2	67.5	112.5	3.0727743543257	-1.59716505904802	0.266666666666667	0	0	0	376.818053175695	376.918035109062	0.0999819333665073	0.266697728075087
46553	100	310	2	46	2	1	0	2	1	0	2	67.5	22.5	-1.39822851784453	1.66926780211301	0.1	0	0	0	377.018035328481	377.11802335782	0.0999880293384194	0.100000219419599
46619.75	100	311	2	47	2	1	0	2	1	0	1	112.5	67.5	-2.54631638218897	2.21816535672202	0.166666666666667	0	0	0	377.284732813016	377.384720354341	0.0999875413253903	0.166709455195814
46669.75	100	312	2	48	2	1	0	2	1	0	1	22.5	67.5	2.53158774299805	0.630978236691428	0.1	0	0	0	377.484739834443	377.584727375768	0.0999875413253903	0.100019480101764
46736.25	100	313	2	49	2	1	0	2	1	0	2	67.5	22.5	1.44248197858618	2.80697379888586	0.166666666666667	0	0	0	377.751410987228	377.851379267871	0.0999682806432247	0.16668361146003
46823.75	100	314	2	50	2	1	0	2	1	0	1	112.5	157.5	1.23447750436957	2.02639849117138	0.25	0	0	0	378.101428700145	378.201404538471	0.0999758383259177	0.250049432273954
46919.75	100	315	2	51	2	1	0	2	1	0	2	67.5	22.5	0.0601678002579451	-0.132903559628209	0.283333333333333	0	0	0	378.48474617349	378.584748099558	0.100001926068217	0.283341635018587
46978	100	316	2	52	2	1	0	2	1	0	1	112.5	157.5	3.1169939385013	-2.85412951351085	0.133333333333333	0	0	0	378.718089039903	378.818073899485	0.0999848595820367	0.133340940345079
47061.25	100	317	2	53	2	1	0	2	1	0	2	157.5	22.5	1.10987931004816	3.02140633574272	0.233333333333333	0	0	0	379.051448704675	379.151416253764	0.0999675490893424	0.233374805189669
47124	100	318	2	54	2	1	0	2	1	0	2	157.5	112.5	2.91654966893115	2.56458562740456	0.15	0	0	0	379.301452788524	379.401438867208	0.0999860786832869	0.150036534760147
47186.5	100	319	2	55	2	1	0	2	1	0	1	22.5	67.5	0.0277146669333419	0.475189504256705	0.15	0	0	0	379.551458335016	379.651427103207	0.0999687681905925	0.150019467808306
47282.25	100	320	2	56	2	1	0	2	1	0	2	67.5	112.5	-1.37485575988774	-0.298844251794035	0.283333333333333	0	0	0	379.934805309866	380.034786999691	0.099981689825654	0.283378206659108
47340.5	100	321	2	57	2	1	0	2	1	0	1	112.5	67.5	-2.32912762469944	-0.467527515436901	0.133333333333333	0	0	0	380.168143299874	380.268116944004	0.0999736441299319	0.133356300182641
47428	100	322	2	58	2	1	0	2	1	0	2	157.5	112.5	-1.79882642890572	2.75320364716893	0.25	0	0	0	380.518142970745	380.618120515719	0.0999775449745357	0.25002602674067
47478	100	323	2	59	2	1	0	2	1	0	1	112.5	67.5	-3.07032358007795	-0.235502302897118	0.1	0	0	0	380.71813780209	380.818118272815	0.0999804707244039	0.10001728637144
47532.25	100	324	2	60	2	1	0	2	1	0	1	112.5	157.5	-1.26462023010221	2.75844893160335	0.116666666666667	0	0	0	380.934832616244	381.034813086968	0.0999804707244039	0.116714343428612
47599	100	325	2	61	2	1	0	2	1	0	2	67.5	112.5	-1.35465923929927	1.67108078873732	0.166666666666667	0	0	0	381.20148133859	381.301467417274	0.0999860786832869	0.166668251622468
47674	100	326	2	62	2	1	0	2	1	0	1	22.5	157.5	-0.0944234845988765	0.413248476869215	0.2	0	0	0	381.501515886281	381.601494406816	0.0999785205349326	0.200048469007015
47740.5	100	327	2	63	2	1	0	2	1	0	1	22.5	157.5	2.9582209279725	-1.42962520377344	0.166666666666667	0	0	0	381.76818777062	381.868155075703	0.0999673050828278	0.16669336380437
47790.5	100	328	2	64	2	1	0	2	1	0	2	157.5	112.5	0.205378635436454	1.28765891418641	0.1	0	0	0	381.968190160114	382.068171362393	0.0999812022782862	0.100035084411502
47882.25	100	329	2	65	2	1	0	2	1	0	1	22.5	67.5	-1.47464499673058	0.31575896077817	0.266666666666667	0	0	0	382.334864458069	382.434845903888	0.0999814458191395	0.266693095676601
47982.25	100	330	2	66	2	1	0	2	1	3	1	112.5	67.5	-3.05831654603153	0.186325814510914	0.3	0	0	0	382.73487581918	382.834860435221	0.0999846160411835	0.300029915291816
48078	100	331	2	67	2	1	0	2	1	3	1	112.5	157.5	1.50554772677189	-0.60429677944738	0.283333333333333	0	0	0	383.118220843375	383.218167912215	0.0999470688402653	0.283360408153385
48157.25	100	332	2	68	2	1	0	2	1	3	2	67.5	112.5	3.10384240650275	1.63828127796196	0.216666666666667	0	0	0	383.434892959427	383.534877575003	0.0999846155755222	0.216725047212094
48232.25	100	333	2	69	2	1	0	2	1	2	-1	45	0	1.61919034116132	2.44865836974244	0.2	0	0	0	383.734903613571	383.83488871716	0.0999851035885513	0.200026038568467
48282.25	100	334	2	70	2	1	0	2	1	3	2	67.5	22.5	-1.80602750110373	-2.48366511341337	0.1	0	0	0	383.93490697816	384.034891593736	0.0999846155755222	0.100018261000514
48365.5	100	335	2	71	2	1	0	2	1	3	1	22.5	157.5	-1.31359777014326	-0.912185793100341	0.233333333333333	0	0	0	384.26822982775	384.368206641637	0.0999768138863146	0.233338234014809
48419.75	100	336	2	72	2	1	0	2	1	3	2	157.5	22.5	1.78406729390296	0.451218411660583	0.116666666666667	0	0	0	384.484900261275	384.584881463554	0.0999812022782862	0.116693619638681
48511.5	100	337	2	73	2	1	0	2	1	3	1	22.5	67.5	-0.882679927636653	-0.181271937659453	0.266666666666667	0	0	0	384.851578704081	384.951558443252	0.0999797391705215	0.266697240527719
48569.75	100	338	2	74	2	1	0	2	1	0	2	67.5	112.5	0.946238787705754	-0.680621899905545	0.133333333333333	0	0	0	385.084935955238	385.184914962854	0.0999790076166391	0.1333775119856
48661.5	100	339	2	75	2	1	0	2	1	0	1	112.5	157.5	-0.769008826451862	1.06958236650922	0.266666666666667	0	0	0	385.451610252727	385.551579996012	0.0999697432853281	0.266695289872587
48732.25	100	340	2	76	2	1	0	2	1	0	2	67.5	112.5	-3.09897512643361	-2.74210214645134	0.183333333333333	0	0	0	385.734933114611	385.834944061935	0.100010947324336	0.183353118598461
48786.5	100	341	2	77	2	1	0	2	1	0	1	112.5	67.5	-2.20126174020213	2.51094868819519	0.116666666666667	0	0	0	385.951629635878	386.051598647609	0.0999690117314458	0.116685573942959
48849	100	342	2	78	2	1	0	2	1	0	2	157.5	22.5	-2.55898793145601	2.98699376051926	0.15	0	0	0	386.201623479836	386.30162467435	0.100001194514334	0.150024832226336
48911.5	100	343	2	79	2	1	0	2	1	0	1	112.5	67.5	1.61944940641937	-1.99771326619544	0.15	0	0	0	386.451647068374	386.551610228606	0.0999631602317095	0.150022394023836
49003	100	344	2	80	2	1	0	2	1	0	2	157.5	22.5	-1.3088927586221	-0.64085465989658	0.266666666666667	0	0	0	386.818299666978	386.918309151195	0.100009484216571	0.26668943837285
49065.5	100	345	2	81	2	1	0	2	1	0	2	67.5	112.5	0.578366078545173	-2.87259291374318	0.15	0	0	0	387.06833569007	387.168295924552	0.0999602344818413	0.150026538874954
49128	100	346	2	82	2	1	0	2	1	0	1	22.5	157.5	-2.46093874659695	2.91769553418681	0.15	0	0	0	387.318338067271	387.4183175629	0.0999794956296682	0.15004214271903
49215.5	100	347	2	83	2	1	0	2	1	0	1	112.5	67.5	-2.21255946032238	1.83208384301557	0.25	0	0	0	387.668327010237	387.768304799218	0.0999777889810503	0.250009447336197
49265.5	100	348	2	84	2	1	0	2	1	0	2	67.5	112.5	2.33508889766244	-2.76705594108627	0.1	0	0	0	387.868331593927	387.968315965962	0.0999843720346689	0.100026794709265
49336.5	100	349	2	85	2	1	0	2	1	0	1	112.5	67.5	1.86254051357452	2.71556324630581	0.183333333333333	0	0	0	388.151692490093	388.25167247327	0.099979983177036	0.183376524131745
49394.75	100	350	2	86	2	1	0	2	1	0	2	67.5	22.5	-1.61859061264524	-0.835591218074543	0.133333333333333	0	0	0	388.385034868494	388.48501460813	0.0999797396361828	0.13336239522323
49482.25	100	351	2	87	2	1	0	2	1	0	2	67.5	22.5	-1.18259172064876	-0.309037064515464	0.25	0	0	0	388.735042829067	388.835003795102	0.0999609660357237	0.250028220936656
49561.5	100	352	2	88	2	1	0	2	1	0	1	22.5	157.5	2.25758681699466	2.56955342741146	0.216666666666667	0	0	0	389.051715920214	389.151700535789	0.0999846155755222	0.216712125111371
49644.75	100	353	2	89	2	1	0	2	1	0	2	157.5	112.5	0.127709832411985	-0.296268093096475	0.233333333333333	0	0	0	389.385058030486	389.485029724427	0.0999716939404607	0.233357494696975
49711.5	100	354	2	90	2	1	0	2	1	0	1	22.5	67.5	-1.08387364999875	1.27627405218663	0.166666666666667	0	0	0	389.651735766325	389.751700877212	0.099965110886842	0.166706041898578
49794.75	100	355	2	91	2	1	0	2	1	0	2	67.5	112.5	2.18306133918651	-2.15520401081398	0.233333333333333	0	0	0	389.985075925943	390.085042255931	0.0999663299880922	0.233375048730522
49849	100	356	2	92	2	1	0	2	1	0	1	22.5	157.5	-0.374430628637004	2.69107257400792	0.116666666666667	0	0	0	390.201727830339	390.301715127658	0.0999872973188758	0.116685574408621
49932.25	100	357	2	93	2	1	0	2	1	0	1	22.5	157.5	2.80085375061747	0.212580046677742	0.233333333333333	0	0	0	390.535073841456	390.635051386897	0.099977545440197	0.233358713798225
50024	100	358	2	94	2	1	0	2	1	0	2	67.5	22.5	2.06652590298696	-2.08843658027809	0.266666666666667	0	0	0	390.901745945215	391.001730804797	0.0999848595820367	0.266694558318704
50090.5	100	359	2	95	2	1	0	2	1	0	2	157.5	112.5	-1.62097645479576	2.33931068573364	0.166666666666667	0	0	0	391.168399055954	391.268420730717	0.100021674763411	0.166668251156807
50144.75	100	360	2	96	2	1	0	2	1	0	1	22.5	67.5	-0.867836658850471	2.10465064792009	0.116666666666667	0	0	0	391.385100941174	391.48507970525	0.0999787640757859	0.116680210456252
50224	100	361	2	97	2	1	0	2	1	0	2	157.5	22.5	2.21477183045565	-1.83430028345214	0.216666666666667	0	0	0	391.701788173057	391.801774739288	0.0999865662306547	0.216708467807621
50324	100	362	2	98	2	1	0	2	1	0	2	67.5	112.5	-0.89954769300563	0.743806616006573	0.3	0	0	0	392.101800022181	392.201759281568	0.0999592593871057	0.30002528289333
50411.5	100	363	2	99	2	1	0	2	1	0	2	67.5	112.5	-0.925564359517641	-1.51862874925788	0.25	0	0	0	392.451808226295	392.55178991612	0.099981689825654	0.250048944726586
50503	100	364	2	100	2	1	0	2	1	0	1	112.5	67.5	-2.69601071295882	0.455927215721978	0.266666666666667	0	0	0	392.818489594851	392.918444221839	0.0999546269886196	0.26669967873022
50599	100	365	2	101	2	1	0	2	1	0	1	22.5	157.5	1.58037381107344	1.61434759498722	0.283333333333333	0	0	0	393.201828767546	393.301815333311	0.0999865657649934	0.283384545706213
50699	100	366	2	102	2	1	0	2	1	0	1	112.5	67.5	0.773098229653152	-0.0707003419494945	0.3	0	0	0	393.601838178467	393.701821818948	0.0999836404807866	0.300022845156491
50794.75	100	367	2	103	2	1	0	2	1	0	1	22.5	67.5	0.532338095075858	-2.74708353123352	0.283333333333333	0	0	0	393.985176863149	394.085164648481	0.0999877853319049	0.283355044201016
50890.75	100	368	2	104	2	1	0	2	1	0	1	112.5	157.5	2.00509671070772	-1.5671985075038	0.283333333333333	0	0	0	394.368525056634	394.468506746925	0.0999816902913153	0.283360408153385
50990.75	100	369	2	105	2	1	0	2	1	0	1	22.5	157.5	-0.0480489655560832	-0.110832941385524	0.3	0	0	0	394.768518864177	394.868500066455	0.0999812022782862	0.300012117251754
51049	100	370	2	106	2	1	0	2	1	0	2	157.5	22.5	2.92546451506411	-3.05986075977145	0.133333333333333	0	0	0	395.00188147882	395.101843663957	0.0999621851369739	0.133381412364542
51140.75	100	371	2	107	2	1	0	2	1	0	2	157.5	112.5	2.81976236207479	1.54772678406022	0.266666666666667	0	0	0	395.368554557674	395.468538685702	0.0999841280281544	0.266710893716663
51224	100	372	2	108	2	1	0	2	1	0	1	22.5	67.5	1.77460607269366	-0.376717761516775	0.233333333333333	0	0	0	395.701889353804	395.801872750744	0.0999833969399333	0.233350668102503
51282.25	100	373	2	109	2	1	0	2	1	0	1	22.5	157.5	-1.88718390195931	0.867368752245479	0.133333333333333	0	0	0	395.935221248772	396.035217567347	0.0999963185749948	0.133348498027772
51365.75	100	374	2	110	2	1	0	2	1	0	1	112.5	157.5	2.34451918836181	-0.288267278879094	0.233333333333333	0	0	0	396.2685653097	396.368560896721	0.0999955870211124	0.233347742352635
51440.75	100	375	2	111	2	1	0	2	1	3	2	67.5	22.5	-0.315424641014056	1.30854894342502	0.2	0	0	0	396.568590836599	396.668542781845	0.099951945245266	0.200029939878732
51507.25	100	376	2	112	2	1	0	2	1	3	1	22.5	157.5	0.371847673662653	0.755225819986001	0.166666666666667	0	0	0	396.835237608291	396.935222955421	0.0999853471294045	0.166694826446474
51561.5	100	377	2	113	2	1	0	2	1	3	2	157.5	22.5	2.22140659990274	0.587426563687241	0.116666666666667	0	0	0	397.051910480019	397.151892901398	0.0999824213795364	0.116687524598092
51640.75	100	378	2	114	2	1	0	2	1	1	-1	0	135	-0.125893596797029	0.657472004271346	0.216666666666667	0	0	0	397.368588203564	397.468567211647	0.0999790080823004	0.216695302166045
51703.25	100	379	2	115	2	1	0	2	1	3	2	157.5	112.5	2.95003031333566	-0.763845706892734	0.15	0	0	0	397.618593994062	397.718575927895	0.0999819338321686	0.150026782415807
51803.25	100	380	2	116	2	1	0	2	1	3	1	22.5	67.5	-1.28534792406117	-2.08320505096687	0.3	1	0.542180404067039	1	398.018628517631	398.118594116066	0.0999655984342098	0.300052589736879
51874	100	381	2	117	2	1	0	2	1	3	2	67.5	112.5	-0.789221715338784	-0.197364602360886	0.183333333333333	0	0	0	398.301967470441	398.401948429178	0.099980958737433	0.183373354375362
51957.25	100	382	2	118	2	1	0	2	1	3	1	112.5	157.5	-1.26718360253592	-0.15501855118558	0.233333333333333	0	0	0	398.635289588477	398.735278836917	0.0999892484396696	0.233341159299016
52007.25	100	383	2	119	2	1	0	2	1	0	1	22.5	157.5	0.21078580979565	0.0715097436267276	0.1	0	0	0	398.835288320668	398.935270498507	0.0999821778386831	0.10000948375091
52078.25	100	384	2	120	2	1	0	2	1	0	2	157.5	112.5	-1.98513767425569	-0.706823104835518	0.183333333333333	0	0	0	399.118626298849	399.218595798127	0.0999694992788136	0.183355800341815
52157.25	100	385	2	121	2	1	0	2	1	0	1	112.5	67.5	-0.632971434545975	-1.29236840095979	0.216666666666667	0	0	0	399.435311580542	399.535319601651	0.100008021108806	0.216715782415122
52249	100	386	2	122	2	1	0	2	1	0	1	22.5	157.5	2.01673143711021	0.100107993045695	0.266666666666667	0	0	0	399.801985634491	399.901963423472	0.0999777889810503	0.266666032839566
52319.75	100	387	2	123	2	1	0	2	1	0	1	112.5	157.5	2.66951318328743	-2.79720390716381	0.183333333333333	0	0	0	400.085347749293	400.185327732936	0.0999799836426973	0.183384325820953
52394.75	100	388	2	124	2	1	0	2	1	0	2	157.5	22.5	-1.21159428546196	-0.642826698867815	0.2	0	0	0	400.385354259051	400.485338631086	0.0999843720346689	0.200026526115835
52465.75	100	389	2	125	2	1	0	2	1	0	1	22.5	157.5	2.14122133281473	-0.885049049574721	0.183333333333333	0	0	0	400.66869296832	400.768675877713	0.0999829093925655	0.18335433723405
52561.5	100	390	2	126	2	1	0	2	1	0	2	157.5	22.5	2.49623655825746	-0.311383408483718	0.283333333333333	0	0	0	401.052038724069	401.152019194793	0.0999804707244039	0.283362846355885
52649	100	391	2	127	2	1	0	2	1	0	1	22.5	67.5	-1.08798440385002	-1.38443818455129	0.25	0	0	0	401.402049122378	401.50203690771	0.0999877853319049	0.250029927585274
52728.25	100	392	2	128	2	1	0	2	1	0	2	157.5	112.5	0.153377437663862	0.974776649524045	0.216666666666667	0	0	0	401.718730746768	401.818686836865	0.0999560900963843	0.21669383905828
52799	100	393	2	129	2	1	0	2	1	0	2	67.5	22.5	-0.00691018492206696	3.13271531060693	0.183333333333333	0	0	0	402.002070919145	402.102046025917	0.0999751067720354	0.183384082280099
52853.25	100	394	2	130	2	1	0	2	1	0	2	67.5	22.5	-0.475714775562665	-2.749668259084	0.116666666666667	0	0	0	402.218734282069	402.318716215901	0.0999819338321686	0.116688256151974
52924	100	395	2	131	2	1	0	2	1	0	2	157.5	22.5	1.81487560558838	-0.653098405951163	0.183333333333333	0	0	0	402.502080061939	402.602056875825	0.0999768138863146	0.183363846037537
52986.5	100	396	2	132	2	1	0	2	1	3	2	67.5	112.5	3.04814581198722	-0.902564715485094	0.15	0	0	0	402.752070004586	402.852073393762	0.100003389175981	0.150013128761202
53074	100	397	2	133	2	1	0	2	1	3	1	112.5	157.5	-2.94171075638823	2.88475882485614	0.25	0	0	0	403.102079915814	403.20207647793	0.0999965621158481	0.25000652205199
53153.25	100	398	2	134	2	1	0	2	1	3	1	22.5	157.5	1.49037492322254	1.66274887864321	0.216666666666667	0	0	0	403.418771536089	403.518741035834	0.0999694997444749	0.21669505815953
53207.25	100	399	2	135	2	1	0	2	1	3	2	67.5	22.5	0.686587897477851	-0.972440888466177	0.116666666666667	0	0	0	403.635426609777	403.735413663555	0.0999870537780225	0.116685573942959
56940.75	100	400	3	0	1	1	0	1	2	3	1	112.5	157.5	0.846862577601597	-0.296070894512139	0.2	0	0	0	418.569162570406	418.669149623718	0.0999870533123612	-1
57015.75	100	401	3	1	1	1	0	1	2	3	1	112.5	67.5	-2.90108723629698	-0.798109387859689	0.2	0	0	0	418.869190535042	418.969180271029	0.0999897359870374	0.200040911324322
57090.75	100	402	3	2	1	1	0	1	2	3	1	22.5	67.5	1.53430126812292	0.917838721199203	0.2	0	0	0	419.169200214557	419.269182635937	0.0999824213795364	0.200019943527877
57165.75	100	403	3	3	1	1	0	1	2	3	2	67.5	22.5	-2.20358928243526	-0.370609334254453	0.2	0	0	0	419.469211600255	419.56919207098	0.0999804707244039	0.200028964318335
57240.75	100	404	3	4	1	1	0	1	2	0	1	22.5	67.5	-2.39283690293587	-1.72047642485955	0.2	0	0	0	419.769217622466	419.869183708448	0.0999660859815776	0.20002555148676
57315.75	100	405	3	5	1	1	0	1	2	0	1	112.5	157.5	0.834584391201126	-0.0712132337844613	0.2	0	0	0	420.069203895982	420.169185342267	0.0999814462848008	0.200020187534392
57390.75	100	406	3	6	1	1	0	1	2	0	2	67.5	112.5	-0.094894951741455	-2.72632929159215	0.2	0	0	0	420.369231861085	420.46920160437	0.0999697432853281	0.200046518817544
57465.75	100	407	3	7	1	1	0	1	2	0	1	112.5	67.5	1.49230376700176	2.99387623589242	0.2	0	0	0	420.669239101931	420.769207870122	0.0999687681905925	0.200037497561425
57540.75	100	408	3	8	1	1	0	1	2	0	2	67.5	112.5	1.66699545457298	-2.99128044034417	0.2	0	0	0	420.969235127792	421.069212429225	0.0999773014336824	0.200027257669717
57615.75	100	409	3	9	1	1	0	1	2	0	2	67.5	112.5	1.36194593581098	1.2756673882393	0.2	0	0	0	421.269248220604	421.369231373537	0.0999831529334188	0.200035791378468
57690.75	100	410	3	10	1	1	0	1	2	0	2	157.5	112.5	-2.27749875737549	1.25390646289902	0.2	0	0	0	421.56925814366	421.66924080858	0.0999826649203897	0.200026770122349
57765.75	100	411	3	11	1	1	0	1	2	0	1	22.5	157.5	0.0888828493839413	-2.54759210305792	0.2	0	0	0	421.869257338811	421.96923683444	0.0999794956296682	0.200016530230641
57840.75	100	412	3	12	1	1	0	1	2	0	2	157.5	22.5	-0.837658775384714	3.02167118078018	0.2	0	0	0	422.169261166826	422.269265043549	0.100003876723349	0.20002433238551
57915.75	100	413	3	13	1	1	0	1	2	0	1	22.5	67.5	-1.86723719451566	1.04745922530345	0.2	0	0	0	422.469288887922	422.569272284396	0.099983396474272	0.200023844372481
57990.75	100	414	3	14	1	1	0	1	2	0	1	112.5	157.5	0.810817276025848	2.42024837576038	0.2	0	0	0	422.769303930923	422.869263921864	0.0999599909409881	0.20003164652735
58065.75	100	415	3	15	1	1	0	1	2	3	2	157.5	112.5	-1.89981058933442	-0.486108946336999	0.2	0	0	0	423.06931799883	423.169289448764	0.0999714499339461	0.200054076965898
58140.75	100	416	3	16	1	1	0	1	2	3	2	67.5	22.5	-1.33150357168531	-0.00223766878776344	0.2	0	0	0	423.369312805589	423.469282792881	0.0999699872918427	0.200023356825113
58215.75	100	417	3	17	1	1	0	1	2	3	1	22.5	157.5	-1.92116877177827	3.0962997106762	0.2	0	0	0	423.669329067692	423.769304662477	0.0999755947850645	0.200046274811029
58290.75	100	418	3	18	1	1	0	1	2	2	-1	45	0	2.00297091738069	-1.81801942376233	0.2	0	0	0	423.969332164153	424.069317511283	0.0999853471294045	0.200027501676232
58365.75	100	419	3	19	1	1	0	1	2	3	1	112.5	157.5	1.18198001744417	-2.21262184751689	0.2	0	0	0	424.269330140669	424.369314512238	0.0999843715690076	0.200012629386038
58440.75	100	420	3	20	1	1	0	1	2	3	2	157.5	22.5	2.14889385366779	1.80439368947035	0.2	0	0	0	424.569347865414	424.669330043253	0.0999821778386831	0.200033353175968
58515.75	100	421	3	21	1	1	0	1	2	3	1	22.5	67.5	0.160499193685705	1.64839069798638	0.2	0	0	0	424.86936071422	424.969338503201	0.0999777889810503	0.200030670966953
58590.75	100	422	3	22	1	1	0	1	2	3	2	67.5	112.5	2.63908203904824	-1.13691453687812	0.2	0	0	0	425.169364785776	425.269335992169	0.0999712063930929	0.200026282574981
58665.75	100	423	3	23	1	1	0	1	2	0	1	112.5	157.5	-2.85907801761306	0.924676365192445	0.2	0	0	0	425.469366175588	425.569346646313	0.0999804707244039	0.200030183419585
58740.75	100	424	3	24	1	1	0	1	2	0	1	22.5	157.5	-1.28554244877007	1.89279362476531	0.2	0	0	0	425.769370003603	425.869354619179	0.0999846155755222	0.200023357290775
58815.75	100	425	3	25	1	1	0	1	2	0	2	157.5	22.5	-0.538792781076151	2.95420662073981	0.2	0	0	0	426.069379926659	426.169364054687	0.0999841280281544	0.200025307480246
58890.75	100	426	3	26	1	1	0	1	2	0	1	112.5	157.5	2.18449566407483	2.34356979823205	0.2	0	0	0	426.369391556364	426.469356423244	0.0999648668803275	0.200027501676232
58965.75	100	427	3	27	1	1	0	1	2	0	2	157.5	22.5	-3.08426269915582	3.07420417491235	0.2	0	0	0	426.669389044866	426.769365858752	0.0999768138863146	0.200032621622086
59040.75	100	428	3	28	1	1	0	1	2	0	2	67.5	112.5	0.485962556096514	-1.07758731478336	0.2	0	0	0	426.969421154819	427.069381389301	0.0999602344818413	0.200055296067148
59115.75	100	429	3	29	1	1	0	1	2	0	2	157.5	22.5	-1.78347640808562	3.11964018967635	0.2	0	0	0	427.269400113728	427.369402527809	0.100002414081246	0.200018724426627
59190.75	100	430	3	30	1	1	0	1	2	0	2	157.5	22.5	-2.20924145301019	-2.04714228445011	0.2	0	0	0	427.569412718993	427.669410987757	0.099998268764466	0.200010191183537
59265.75	100	431	3	31	1	1	0	1	2	0	2	67.5	112.5	2.41189946269774	1.70674606621281	0.2	0	0	0	427.869410695508	427.96940945182	0.0999987563118339	0.199999707750976
59340.75	100	432	3	32	1	1	0	1	2	0	2	67.5	22.5	0.289515818481378	1.03708109185314	0.2	0	0	0	428.169453044888	428.269425957929	0.0999729130417109	0.200043593067676
59415.75	100	433	3	33	1	1	0	1	2	0	1	22.5	67.5	-2.40779458844156	2.11632122606015	0.2	0	0	0	428.469451752957	428.569420520682	0.0999687677249312	0.200025795027614
59490.75	100	434	3	34	1	1	0	1	2	0	2	67.5	22.5	0.431430032111463	-3.07730509381938	0.2	0	0	0	428.769445828162	428.869440927636	0.0999950994737446	0.200025307480246
59565.75	100	435	3	35	1	1	0	1	2	0	1	112.5	67.5	-0.881970944247808	-2.20832994783668	0.2	0	0	0	429.069453801028	429.16945255734	0.0999987563118339	0.200012873392552
59640.75	100	436	3	36	1	1	0	1	2	0	1	112.5	157.5	-2.55596948231239	0.656413780122759	0.2	0	0	0	429.369482497219	429.469442975707	0.0999604784883559	0.200029939878732
59715.75	100	437	3	37	1	1	0	1	2	0	2	157.5	22.5	-0.755491363092119	3.12622124279186	0.2	0	0	0	429.669487300329	429.769467283506	0.099979983177036	0.200044324621558
59790.75	100	438	3	38	1	1	0	1	2	0	1	112.5	67.5	-3.03530771080219	-2.25378865282114	0.2	0	0	0	429.969495029189	430.069474524818	0.0999794956296682	0.200027745682746
59865.75	100	439	3	39	1	1	0	1	2	0	2	157.5	22.5	2.43836636920151	-1.44900830516536	0.2	0	0	0	430.26949422434	430.36946006678	0.0999658424407244	0.200019699521363
59940.75	100	440	3	40	1	1	0	1	2	0	2	67.5	112.5	-2.98169130509613	-1.46654191956458	0.2	0	0	0	430.569496833254	430.669484862126	0.0999880288727582	0.200036766473204
60015.75	100	441	3	41	1	1	0	1	2	0	2	67.5	112.5	0.32640717096098	-2.66846797265459	0.2	0	0	0	430.869516996201	430.969498198479	0.0999812022782862	0.200032134074718
60090.75	100	442	3	42	1	1	0	1	2	0	1	22.5	157.5	1.26262559559858	0.88285162361052	0.2	0	0	0	431.169510096312	431.269484471995	0.0999743756838143	0.200011897832155
60165.75	100	443	3	43	1	1	0	1	2	0	2	157.5	112.5	-0.531480178074184	-2.9939992058996	0.2	0	0	0	431.469514899421	431.569495858159	0.099980958737433	0.2000304274261
60240.75	100	444	3	44	1	1	0	1	2	0	1	22.5	157.5	-2.91576331004377	-0.367187194647291	0.2	0	0	0	431.76954798447	431.869526016992	0.0999780325219035	0.200052126310766
60315.75	100	445	3	45	1	1	0	1	2	0	1	22.5	157.5	0.175986909581292	3.03933180462598	0.2	0	0	0	432.069527187385	432.169530576561	0.100003389175981	0.20000117039308
60390.75	100	446	3	46	1	1	0	1	2	0	1	22.5	67.5	-2.3857473686638	-1.54871397169088	0.2	0	0	0	432.369535160251	432.469505878631	0.0999707183800638	0.200004583690315
60465.75	100	447	3	47	1	1	0	1	2	0	2	67.5	22.5	0.388397753687943	-0.151872064559121	0.2	0	0	0	432.669534599409	432.76954798447	0.100013385061175	0.200028720777482
60540.75	100	448	3	48	1	1	0	1	2	0	2	157.5	22.5	-2.41161262690032	-3.06141035343042	0.2	0	0	0	432.969579386991	433.069539134391	0.0999597474001348	0.200031402520835
60615.75	100	449	3	49	1	1	0	1	2	0	1	22.5	67.5	-1.80294334093335	-0.138906790047497	0.2	0	0	0	433.269576388411	433.369558809791	0.0999824213795364	0.200037254020572
60690.75	100	450	3	50	1	1	0	1	2	3	1	112.5	67.5	0.386259304877326	-1.33819802309671	0.2	0	0	0	433.569584117271	433.669567513745	0.099983396474272	0.200025307480246
60765.75	100	451	3	51	1	1	0	1	2	3	2	157.5	22.5	0.186535143431759	-0.822437309828062	0.2	0	0	0	433.869606718421	433.969572804403	0.0999660859815776	0.200039204675704
60840.75	100	452	3	52	1	1	0	1	2	3	1	112.5	157.5	2.25850589652367	-0.00636310210449009	0.2	0	0	0	434.169597867876	434.269579801708	0.0999819338321686	0.200025063473731
60915.75	100	453	3	53	1	1	0	1	2	1	-1	0	135	-0.736586093157678	0.438059169490167	0.2	0	0	0	434.469610472675	434.569595819805	0.0999853471294045	0.200030670966953
60990.75	100	454	3	54	1	1	0	1	2	3	2	67.5	112.5	2.01099788842014	0.440937109871091	0.2	0	0	0	434.769600891043	434.869609400164	0.100008509121835	0.200005071237683
61065.75	100	455	3	55	1	1	0	1	2	3	2	67.5	22.5	2.71953655101227	1.49262076306784	0.2	0	0	0	435.0696308068	435.169615909923	0.09998510312289	0.200021406635642
61140.75	100	456	3	56	1	1	0	1	2	3	1	22.5	67.5	1.80149951101924	-1.42718394639411	0.2	0	0	0	435.369640973397	435.469607790932	0.09996681753546	0.200025063473731
61215.75	100	457	3	57	1	1	0	1	2	3	1	22.5	157.5	2.40606497427478	-0.703298258850074	0.2	0	0	0	435.66964943381	435.769628441427	0.0999790076166391	0.200041642878205
61291	100	458	3	58	1	1	0	1	2	0	2	157.5	112.5	-1.94391988319716	1.9911363784142	0.2	0	0	0	435.969655699562	436.069635439198	0.0999797396361828	0.200027258135378
61366	100	459	3	59	1	1	0	1	2	0	1	112.5	157.5	0.318558322633806	-2.03273319312853	0.2	0	0	0	436.269662209321	436.369640729856	0.0999785205349326	0.200026770122349
61441	100	460	3	60	1	1	0	1	2	0	1	22.5	67.5	-2.92333315281283	-1.00711101371237	0.2	0	0	0	436.569661160931	436.669636267703	0.0999751067720354	0.200020431075245
61516	100	461	3	61	1	1	0	1	2	0	1	22.5	157.5	2.15745093152836	0.0462663120392115	0.2	0	0	0	436.869684493635	436.969659844413	0.0999753507785499	0.200048225931823
61591	100	462	3	62	1	1	0	1	2	0	2	157.5	112.5	-1.06277654876104	2.85431581409952	0.2	0	0	0	437.169691003393	437.269674887415	0.0999838840216398	0.200031158979982
61666	100	463	3	63	1	1	0	1	2	0	2	67.5	22.5	-1.23701333892849	-2.13815211344969	0.2	0	0	0	437.469698975794	437.569679446518	0.0999804707244039	0.200024088378996
61741	100	464	3	64	1	1	0	1	2	0	2	67.5	22.5	-2.90772849644931	0.761379135629746	0.2	0	0	0	437.769702803344	437.869686200283	0.0999833969399333	0.200023356825113
61816	100	465	3	65	1	1	0	1	2	0	2	157.5	22.5	1.04236293556883	-0.509999979467737	0.2	0	0	0	438.069711751305	438.169700267725	0.099988516420126	0.200025551021099
61891	100	466	3	66	1	1	0	1	2	0	1	22.5	157.5	0.64574119624352	2.04159778879094	0.2	0	0	0	438.369720699266	438.469693368301	0.0999726690351963	0.200020431540906
61966	100	467	3	67	1	1	0	1	2	0	2	157.5	22.5	0.26736273755531	-1.8841551594171	0.2	0	0	0	438.669711117633	438.769690613262	0.0999794956296682	0.200017749331892
62041	100	468	3	68	1	1	0	1	2	0	2	157.5	22.5	-1.6634212099831	2.72074583678022	0.2	0	0	0	438.969714701641	439.06970199896	0.0999872973188758	0.200024088378996
62116	100	469	3	69	1	1	0	1	2	0	2	157.5	112.5	-1.61049400390714	-3.00325251639584	0.2	0	0	0	439.269724136684	439.369709240273	0.0999851035885513	0.200022137723863
62191	100	470	3	70	1	1	0	1	2	0	1	22.5	157.5	-2.75862620666683	-2.31880514897466	0.2	0	0	0	439.569734547753	439.669740618672	0.100006070919335	0.200025307480246
62266	100	471	3	71	1	1	0	1	2	0	1	22.5	67.5	-2.95001862834076	-0.0449798779399737	0.2	0	0	0	439.869761537295	439.969747615978	0.0999860786832869	0.200020918622613
62341	100	472	3	72	1	1	0	1	2	0	1	112.5	67.5	-1.07544574461124	-0.258232303401108	0.2	0	0	0	440.169772191904	440.269753637724	0.0999814458191395	0.200024575926363
62416	100	473	3	73	1	1	0	1	2	0	2	67.5	112.5	1.04857610153727	0.45798403472803	0.2	0	0	0	440.469767486211	440.569734547753	0.0999670615419745	0.200013848487288
62491	100	474	3	74	1	1	0	1	2	0	2	67.5	22.5	-0.329871210979757	-2.53459338361004	0.2	0	0	0	440.769742300734	440.869768363889	0.100026063155383	0.200007752981037
62566	100	475	3	75	1	1	0	1	2	0	2	67.5	112.5	-1.9255774802333	0.533710617733187	0.2	0	0	0	441.069778555073	441.169751711655	0.0999731565825641	0.200010191183537
62641	100	476	3	76	1	1	0	1	2	0	1	22.5	67.5	2.55001578798232	0.649976864092801	0.2	0	0	0	441.369800668675	441.469781383406	0.0999807147309184	0.200048957020044
62716	100	477	3	77	1	1	0	1	2	0	1	112.5	157.5	1.59624317054577	1.70763130776533	0.2	0	0	0	441.669808153529	441.769791550469	0.0999833969399333	0.200026770122349
62791	100	478	3	78	1	1	0	1	2	0	2	157.5	112.5	-1.74992621197319	-0.128963204660775	0.2	0	0	0	441.969816126395	442.069792696275	0.0999765698798001	0.200024575926363
62866	100	479	3	79	1	1	0	1	2	0	1	112.5	67.5	-0.0187789455356153	-1.43304888495005	0.2	0	0	0	442.269807519857	442.369784577284	0.0999770574271679	0.200014823582023
62941	100	480	3	80	1	1	0	1	2	0	1	22.5	67.5	1.51694371925224	2.63923808643488	0.2	0	0	0	442.56981207896	442.66979450034	0.0999824213795364	0.200027501676232
63016	100	481	3	81	1	1	0	1	2	0	1	112.5	67.5	1.21614248069932	0.696381660553842	0.2	0	0	0	442.86981980782	442.969782968052	0.0999631602317095	0.200025307480246
63091	100	482	3	82	1	1	0	1	2	0	1	112.5	157.5	3.10337654225964	0.508827906684076	0.2	0	0	0	443.169848016463	443.269832632039	0.0999846155755222	0.200065048411489
63166	100	483	3	83	1	1	0	1	2	0	1	112.5	67.5	-2.91706773624071	2.93319806768204	0.2	0	0	0	443.469857939519	443.569843774196	0.0999858346767724	0.200025307480246
63241	100	484	3	84	1	1	0	1	2	0	1	22.5	67.5	0.117782685738653	-0.48982239283311	0.2	0	0	0	443.769864693284	443.869850283954	0.0999855906702578	0.200020919088274
63316	100	485	3	85	1	1	0	1	2	0	1	112.5	157.5	3.11887226981249	0.0971250505089842	0.2	0	0	0	444.069877298083	444.169858744368	0.0999814462848008	0.200027014128864
63391	100	486	3	86	1	1	0	1	2	0	1	22.5	157.5	-3.06788626420078	-0.452239758359227	0.2	0	0	0	444.3698764937	444.469855013769	0.0999785200692713	0.200017749331892
63466	100	487	3	87	1	1	0	1	2	3	2	157.5	22.5	-2.72368057048559	0.984583341247512	0.2	0	0	0	444.669886172749	444.769862255082	0.0999760823324323	0.200031158979982
63541	100	488	3	88	1	1	0	1	2	3	1	112.5	67.5	1.65777816157285	-2.91335306694863	0.2	0	0	0	444.969889025204	445.069861694239	0.0999726690351963	0.200026770122349
63616	100	489	3	89	1	1	0	1	2	3	1	22.5	67.5	1.02893578942187	2.39062776761192	0.2	0	0	0	445.269883100875	445.369893560186	0.100010459311306	0.200021406635642
63691	100	490	3	90	1	1	0	1	2	2	-1	135	0	-2.66124536881522	0.790598175110675	0.2	0	0	0	445.56991862366	445.669877395499	0.0999587718397379	0.200025063473731
63766	100	491	3	91	1	1	0	1	2	3	1	112.5	157.5	-2.54334372541492	-0.507535007961195	0.2	0	0	0	445.869923914317	445.969890731853	0.09996681753546	0.200046518817544
63841	100	492	3	92	1	1	0	1	2	3	2	67.5	22.5	-1.17889262732524	-1.11643731214086	0.2	0	0	0	446.169933593832	446.269900411367	0.09996681753546	0.200042861979455
63916	100	493	3	93	1	1	0	1	2	3	1	22.5	157.5	-2.18531219691857	1.20408082490711	0.2	0	0	0	446.469938884489	446.56992252497	0.0999836404807866	0.200038473121822
63991	100	494	3	94	1	1	0	1	2	3	2	157.5	112.5	-1.59166610084847	-1.15226529591571	0.2	0	0	0	446.769945394248	446.869932935573	0.0999875413253903	0.200022869277745
64066	100	495	3	95	1	1	0	1	2	0	2	67.5	112.5	1.50876545894486	-3.10151478723658	0.2	0	0	0	447.069944589399	447.169918233529	0.0999736441299319	0.200011653825641
64141	100	496	3	96	1	1	0	1	2	0	2	67.5	22.5	-2.05597354875085	-2.19854925647666	0.2	0	0	0	447.36994183436	447.469927913044	0.0999860786832869	0.200023600831628
64216	100	497	3	97	1	1	0	1	2	0	2	67.5	112.5	-0.53902445788451	-2.31485772349024	0.2	0	0	0	447.66997321276	447.769954659045	0.0999814462848008	0.200045299716294
64291	100	498	3	98	1	1	0	1	2	0	1	112.5	157.5	-0.805400140141071	1.20393639247362	0.2	0	0	0	447.969977284316	448.069963118993	0.0999858346767724	0.200022625271231
64366	100	499	3	99	1	1	0	1	2	0	2	157.5	22.5	1.66602955152524	2.51121105730555	0.2	0	0	0	448.269991352223	448.369968166109	0.0999768138863146	0.200028233230114
64441	100	500	3	100	1	1	0	1	2	0	1	112.5	157.5	1.8834616089584	1.77398312496171	0.2	0	0	0	448.569986890536	448.669969555456	0.0999826649203897	0.200018724426627
64516	100	501	3	101	1	1	0	1	2	0	2	67.5	112.5	2.55361917033717	-1.44127191755062	0.2	0	0	0	448.86998949945	448.969965825323	0.0999763258732855	0.200019943993539
64591	100	502	3	102	1	1	0	1	2	0	1	22.5	157.5	0.298566324590078	2.20694555689594	0.2	0	0	0	449.170011369046	449.269977942575	0.0999665735289454	0.200045543722808
64666	100	503	3	103	1	1	0	1	2	0	2	157.5	112.5	0.111835812530269	0.5915287348756	0.2	0	0	0	449.469997398555	449.56997884484	0.0999814462848008	0.20001945598051
64741	100	504	3	104	1	1	0	1	2	0	2	67.5	22.5	-0.593029953897094	2.16184484299551	0.2	0	0	0	449.770007565618	449.87001339253	0.10000582691282	0.200028720777482
64816	100	505	3	105	1	1	0	1	2	0	2	67.5	22.5	-0.677982285066869	-2.42230507766684	0.2	0	0	0	450.070035774261	450.170019414742	0.0999836404807866	0.200022381730378
64891	100	506	3	106	1	1	0	1	2	0	2	157.5	112.5	2.5536503696009	-0.174653521115977	0.2	0	0	0	450.37003448233	450.470017878804	0.099983396474272	0.200015067588538
64966	100	507	3	107	1	1	0	1	2	0	2	67.5	112.5	0.19595091808857	-0.270910864233883	0.2	0	0	0	450.670040016528	450.77002780186	0.0999877853319049	0.200022137723863
65041	100	508	3	108	1	1	0	1	2	0	1	22.5	67.5	2.30072487249815	-0.224582852642898	0.2	0	0	0	450.970051890239	451.070036018267	0.0999841280281544	0.200024088378996
65116	100	509	3	109	1	1	0	1	2	0	1	112.5	67.5	2.17381568581128	-2.60683402172224	0.2	0	0	0	451.270061325748	451.370042284019	0.0999809582717717	0.200025307480246
65191	100	510	3	110	1	1	0	1	2	0	2	67.5	22.5	0.0899584110615503	2.15989121976939	0.2	0	0	0	451.570074905641	451.670053913724	0.0999790080823004	0.200032621622086
65266	100	511	3	111	1	1	0	1	2	0	1	112.5	67.5	-1.22540371423626	2.86885531640153	0.2	0	0	0	451.870077514555	451.970048964489	0.0999714499339461	0.200023600831628
65341	100	512	3	112	1	1	0	1	2	0	1	112.5	67.5	2.97086671118086	0.125198124868379	0.2	0	0	0	452.170077197719	452.270071565639	0.0999943679198623	0.200028233230114
65416	100	513	3	113	1	1	0	1	2	0	2	67.5	22.5	2.78723659184747	1.77311575192851	0.2	0	0	0	452.470075417776	452.5700675915	0.0999921737238765	0.200003852136433
65491	100	514	3	114	1	1	0	1	2	0	1	22.5	67.5	0.268324370417163	1.2960191188118	0.2	0	0	0	452.77011069702	452.870091167744	0.0999804707244039	0.200043105520308
65566	100	515	3	115	1	1	0	1	2	0	1	112.5	67.5	1.89651235274724	-2.7952054489264	0.2	0	0	0	453.070098189637	453.170078416821	0.0999802271835506	0.200007021892816
65641	100	516	3	116	1	1	0	1	2	0	1	112.5	157.5	-2.09173846780422	2.24181765944482	0.2	0	0	0	453.370122253429	453.470091265626	0.0999690121971071	0.200043836608529
65716	100	517	3	117	1	1	0	1	2	0	2	157.5	112.5	0.654574784503009	-1.64585100489001	0.2	0	0	0	453.670130713843	453.770117036067	0.0999863222241402	0.200039448216558
65791	100	518	3	118	1	1	0	1	2	0	1	22.5	67.5	-0.16540320382847	-3.13838167261777	0.2	0	0	0	453.970140392892	454.070099896286	0.0999595033936203	0.200023356825113
65866	100	519	3	119	1	1	0	1	2	0	2	157.5	112.5	2.71542884838633	-0.575932760158901	0.2	0	0	0	454.270133981016	454.370110306889	0.0999763258732855	0.20003408472985
65941	100	520	3	120	1	1	0	1	2	0	2	157.5	112.5	-0.855911625724251	1.8140213423397	0.2	0	0	0	454.570150730666	454.670131445397	0.0999807147309184	0.200040423776954
66016	100	521	3	121	1	1	0	1	2	0	1	112.5	67.5	0.427021316560555	-2.43097749743531	0.2	0	0	0	454.870155046228	454.970137467142	0.0999824209138751	0.200023600831628
66091	100	522	3	122	1	1	0	1	2	0	1	112.5	67.5	1.39497522658344	2.56180408045925	0.2	0	0	0	455.170165212825	455.270148609299	0.099983396474272	0.200027745682746
66166	100	523	3	123	1	1	0	1	2	0	2	157.5	112.5	-0.58096273646659	-2.8658611478027	0.2	0	0	0	455.470161238685	455.570152193308	0.0999909546226263	0.200012629386038
66241	100	524	3	124	1	1	0	1	2	0	2	67.5	22.5	2.82072258565386	-1.1195547678946	0.2	0	0	0	455.770177988335	455.87014456233	0.0999665739946067	0.200025795027614
66316	100	525	3	125	1	1	0	1	2	0	2	157.5	112.5	0.271266591413244	-1.89428143930499	0.2	0	0	0	456.070163530763	456.170175452717	0.10001192195341	0.200018968433142
66391	100	526	3	126	1	1	0	1	2	0	1	22.5	157.5	-1.99467835824645	0.190577722838222	0.2	0	0	0	456.370184912812	456.470183425583	0.0999985127709806	0.200009460095316
66466	100	527	3	127	1	1	0	1	2	0	2	157.5	22.5	2.0178512530243	-1.17166689910683	0.2	0	0	0	456.670181182213	456.770196761936	0.100015579722822	0.199997756630182
66541	100	528	3	128	1	1	0	1	2	0	1	112.5	157.5	-1.99254025799637	0.755653676670192	0.2	0	0	0	456.970213292167	457.070176208857	0.0999629166908562	0.200016530230641
66616	100	529	3	129	1	1	0	1	2	0	1	22.5	157.5	-2.25782759288609	-2.34604628055163	0.2	0	0	0	457.270228822716	457.370208562352	0.0999797396361828	0.200052613858134
66691	100	530	3	130	1	1	0	1	2	0	2	67.5	22.5	0.612265816169548	1.2185261068364	0.2	0	0	0	457.570239721332	457.670214340556	0.0999746192246675	0.200031158979982
66766	100	531	3	131	1	1	0	1	2	0	1	22.5	157.5	0.4027067765407	-1.2513698688463	0.2	0	0	0	457.870226482395	457.97022182541	0.0999953430145979	0.20001214183867
66841	100	532	3	132	1	1	0	1	2	3	2	157.5	22.5	0.877230036762992	1.94171380090707	0.2	0	0	0	458.170224214904	458.270208342932	0.0999841280281544	0.20000238949433
66916	100	533	3	133	1	1	0	1	2	3	2	67.5	112.5	-1.12577208599769	2.41311298807474	0.2	0	0	0	458.470235600602	458.570245084818	0.100009484216571	0.200027257669717
66991	100	534	3	134	1	1	0	1	2	3	2	157.5	112.5	-0.97661647117771	-0.000151095821751213	0.2	0	0	0	458.770241378807	458.870222825091	0.0999814462848008	0.199996293988079
67066	100	535	3	135	1	1	0	1	2	3	1	22.5	157.5	1.35750932176676	2.80263090587722	0.2	0	0	0	459.07027934026	459.170257860329	0.0999785200692713	0.200056515168399
73174.5	100	536	4	0	2	2	90	2	2	3	2	67.5	22.5	1.59412012487966	-1.52199034612327	0.216666666666667	0	0	0	483.504252161831	483.604221173562	0.0999690117314458	-1
73262	100	537	4	1	2	2	90	2	2	3	2	157.5	22.5	0.358201502325992	0.631534476224856	0.25	0	0	0	483.854266460985	483.954232059419	0.0999655984342098	0.250045287422836
73328.75	100	538	4	2	2	2	90	2	2	3	1	112.5	67.5	-1.30626987461637	-2.89983326542118	0.166666666666667	0	0	0	484.120923473034	484.220909307711	0.0999858346767724	0.166691413614899
73387	100	539	4	3	2	2	90	2	2	3	2	157.5	112.5	-2.36753932982119	-3.03189639805841	0.133333333333333	0	0	0	484.354263169691	484.454245347064	0.0999821773730218	0.13335386198014
73437	100	540	4	4	2	2	90	2	2	0	2	67.5	112.5	-3.08111938567191	1.01030076077293	0.1	0	0	0	484.554285795428	484.654270411003	0.0999846155755222	0.10004044836387
73516.25	100	541	4	5	2	2	90	2	2	0	1	112.5	67.5	-2.46060233107817	-2.89881136267174	0.216666666666667	0	0	0	484.870973514859	484.97096032463	0.099986809771508	0.216703103855252
73574.5	100	542	4	6	2	2	90	2	2	0	1	112.5	67.5	-1.3789735179191	-0.861300531760485	0.133333333333333	0	0	0	485.104312723968	485.204295876902	0.0999831529334188	0.133352399338037
73628.75	100	543	4	7	2	2	90	2	2	0	1	112.5	157.5	2.44437411832136	-2.27839767044773	0.116666666666667	0	0	0	485.320985595696	485.420970455278	0.0999848595820367	0.116689718794078
73716.25	100	544	4	8	2	2	90	2	2	0	2	157.5	22.5	0.998551654742057	-2.35048318622026	0.25	0	0	0	485.670993556269	485.770946964156	0.0999534078873694	0.250023100990802
73795.25	100	545	4	9	2	2	90	2	2	0	1	112.5	157.5	0.995857436622535	-0.0471970601331297	0.216666666666667	0	0	0	485.98764007166	486.087650287431	0.100010215770453	0.216693107504398
73870.25	100	546	4	10	2	2	90	2	2	0	2	157.5	112.5	-1.65606504581604	2.95823381295259	0.2	0	0	0	486.287675838917	486.387636804953	0.0999609660357237	0.20002555148676
73966.25	100	547	4	11	2	2	90	2	2	0	2	67.5	22.5	1.72444501860095	-2.48911833972971	0.283333333333333	0	0	0	486.670994043816	486.770968907047	0.0999748632311821	0.283357238862664
74057.75	100	548	4	12	2	2	90	2	2	0	1	22.5	67.5	-3.02982168087298	-2.81685981487517	0.266666666666667	0	0	0	487.037672242615	487.137653932441	0.099981689825654	0.266703335568309
74124.5	100	549	4	13	2	2	90	2	2	0	1	22.5	67.5	2.76542533095976	-0.321406898927467	0.166666666666667	0	0	0	487.304371189792	487.404354098719	0.0999829089269042	0.166717257350683
74207.75	100	550	4	14	2	2	90	2	2	0	1	22.5	157.5	1.021107552089	-0.503384966609152	0.233333333333333	0	0	0	487.637718664017	487.737693770789	0.0999751067720354	0.233364565297961
74266.25	100	551	4	15	2	2	90	2	2	0	2	157.5	22.5	0.730722080019011	-2.15642990449683	0.133333333333333	0	0	0	487.871042756829	487.971003966872	0.0999612100422382	0.133348986040801
74316.25	100	552	4	16	2	2	90	2	2	0	1	112.5	157.5	0.761631860011374	1.67806321804807	0.1	0	0	0	488.07103271177	488.171041464433	0.100008752662688	0.100028744898736
74382.75	100	553	4	17	2	2	90	2	2	0	2	67.5	22.5	2.92980826731401	-2.7187114939565	0.166666666666667	0	0	0	488.337734097149	488.437715299428	0.0999812022782862	0.166692632716149
74474.5	100	554	4	18	2	2	90	2	2	0	2	67.5	112.5	-3.04278813407789	-1.62969632077115	0.266666666666667	0	0	0	488.70438986551	488.804360339884	0.0999704743735492	0.266674566082656
74570.25	100	555	4	19	2	2	90	2	2	0	1	112.5	157.5	-1.8507728746854	-2.7823276555538	0.283333333333333	0	0	0	489.08775073709	489.187735352665	0.0999846155755222	0.283390397205949
74645.25	100	556	4	20	2	2	90	2	2	0	2	67.5	112.5	-1.38252611558951	-1.75716360563717	0.2	0	0	0	489.387739204802	489.487712361384	0.0999731565825641	0.200003852136433
74737	100	557	4	21	2	2	90	2	2	0	2	157.5	22.5	1.93565384619204	1.73001634047154	0.266666666666667	0	0	0	489.754409357905	489.854397386778	0.0999880288727582	0.266696996521205
74799.5	100	558	4	22	2	2	90	2	2	0	1	112.5	67.5	2.38302059221664	0.504138341958841	0.15	0	0	0	490.004427582957	490.104425364174	0.0999977812170982	0.150030196178705
74874.5	100	559	4	23	2	2	90	2	2	0	2	157.5	22.5	0.289106878377856	-2.23526524538731	0.2	0	0	0	490.304457498249	490.404412612785	0.0999551145359874	0.200032134074718
74945.25	100	560	4	24	2	2	90	2	2	0	1	112.5	67.5	1.87275448079183	2.07604525033541	0.183333333333333	0	0	0	490.587764999829	490.687779603992	0.100014604162425	0.183352387044579
75003.75	100	561	4	25	2	2	90	2	2	0	2	157.5	112.5	2.99525476180088	0.15525391050702	0.133333333333333	0	0	0	490.821132734884	490.921107110567	0.0999743756838143	0.133353130891919
75074.5	100	562	4	26	2	2	90	2	2	0	2	157.5	22.5	2.28900543342943	0.475436851291318	0.183333333333333	0	0	0	491.10445120791	491.204425583594	0.0999743756838143	0.183344097342342
75124.5	100	563	4	27	2	2	90	2	2	0	2	157.5	112.5	-2.076275992958	1.83459552135101	0.1	0	0	0	491.304478953592	491.404462350067	0.099983396474272	0.100053369998932
75199.5	100	564	4	28	2	2	90	2	2	0	1	22.5	67.5	-2.43687046855624	1.76991899961988	0.2	0	0	0	491.604487657547	491.704451061785	0.099963404238224	0.200025307480246
75262	100	565	4	29	2	2	90	2	2	0	2	67.5	112.5	0.781725195966593	-2.60827610588513	0.15	0	0	0	491.854475650005	491.954449537676	0.0999738876707852	0.150024588219821
75316.25	100	566	4	30	2	2	90	2	2	3	1	22.5	157.5	0.295595380220809	-2.2653327293438	0.116666666666667	0	0	0	492.07114023203	492.171122165397	0.0999819333665073	0.116690694354475
75407.75	100	567	4	31	2	2	90	2	2	3	1	112.5	157.5	-0.533918671436678	1.07160009981717	0.266666666666667	0	0	0	492.437816967722	492.537794025615	0.0999770578928292	0.266694802325219
75507.75	100	568	4	32	2	2	90	2	2	3	2	157.5	112.5	-1.51960928709569	2.54911311772903	0.3	0	0	0	492.837825403549	492.93783683842	0.100011434871703	0.300031377933919
75566.25	100	569	4	33	2	2	90	2	2	2	-1	135	90	1.13495065632491	-0.974742482378792	0.133333333333333	0	0	0	493.071166563313	493.171148497146	0.0999819338321686	0.133329724892974
75628.75	100	570	4	34	2	2	90	2	2	3	1	22.5	67.5	-0.846371855518472	0.547019352541767	0.15	0	0	0	493.321177230217	493.42115965113	0.0999824209138751	0.15002873307094
75699.5	100	571	4	35	2	2	90	2	2	3	2	67.5	22.5	1.59134845392327	2.04918232223395	0.183333333333333	0	0	0	493.604545440525	493.704530543648	0.09998510312289	0.183385789394379
75787	100	572	4	36	2	2	90	2	2	3	2	67.5	112.5	-2.46833765786827	1.47601417551914	0.25	0	0	0	493.954550231341	494.05450193258	0.0999517012387514	0.250019687693566
75853.75	100	573	4	37	2	2	90	2	2	3	1	112.5	67.5	2.1144083847591	-2.20738228692448	0.166666666666667	0	0	0	494.221193102188	494.321179667953	0.0999865657649934	0.166691169608384
75903.75	100	574	4	38	2	2	90	2	2	0	2	157.5	22.5	2.09630747039628	-1.93183047441554	0.1	0	0	0	494.421205487568	494.521186202299	0.0999807147309184	0.10002581961453
75987	100	575	4	39	2	2	90	2	2	0	1	112.5	157.5	-2.22791072778595	1.53649240846393	0.233333333333333	0	0	0	494.754543696996	494.854528312571	0.0999846155755222	0.233357494696975
76070.5	100	576	4	40	2	2	90	2	2	0	1	22.5	67.5	-0.62024575847063	2.44982745418403	0.233333333333333	0	0	0	495.087890683673	495.187865546905	0.0999748632311821	0.233362371101975
76158	100	577	4	41	2	2	90	2	2	0	1	112.5	67.5	-0.166738633236473	0.0945936006667041	0.25	0	0	0	495.437897181138	495.537882284727	0.0999851035885513	0.250031634233892
76220.5	100	578	4	42	2	2	90	2	2	0	1	112.5	157.5	-0.123336272973936	-0.0190379917728039	0.15	0	0	0	495.687913699541	495.787891244516	0.0999775449745357	0.150031414814293
76278.75	100	579	4	43	2	2	90	2	2	0	1	22.5	67.5	-2.28196361073515	-0.0697504458709641	0.133333333333333	0	0	0	495.921246082056	496.021225089673	0.0999790076166391	0.133354837540537
76333	100	580	4	44	2	2	90	2	2	0	2	67.5	112.5	-2.26104250375728	2.76765683037419	0.116666666666667	0	0	0	496.137913345825	496.2379155159	0.100002170074731	0.116688256151974
76383	100	581	4	45	2	2	90	2	2	0	1	22.5	157.5	-1.27349162398027	1.71735692311564	0.1	0	0	0	496.337935240008	496.437938872725	0.100003632716835	0.100019724108279
76483	100	582	4	46	2	2	90	2	2	0	1	22.5	157.5	-2.58355668764524	-0.39072245120341	0.3	0	0	0	496.737965618726	496.837940237951	0.0999746192246675	0.300026746001095
76545.5	100	583	4	47	2	2	90	2	2	0	2	157.5	22.5	0.162304029588583	2.86935402694063	0.15	0	0	0	496.987962631974	497.087961632293	0.0999990003183484	0.150022394023836
76620.5	100	584	4	48	2	2	90	2	2	0	1	22.5	157.5	0.651745142269034	0.577722312889045	0.2	0	0	0	497.287956463639	497.387945711613	0.0999892479740083	0.199994831345975
76716.25	100	585	4	49	2	2	90	2	2	0	1	22.5	67.5	-1.63734309285922	3.05944198724039	0.283333333333333	0	0	0	497.671326600015	497.771306583192	0.099979983177036	0.283380888402462
76778.75	100	586	4	50	2	2	90	2	2	0	1	22.5	67.5	0.860475273639875	-2.46323705161378	0.15	0	0	0	497.921333853155	498.021317250095	0.0999833969399333	0.150027269963175
76853.75	100	587	4	51	2	2	90	2	2	3	2	157.5	112.5	-2.08807794731526	-2.22455659313078	0.2	0	0	0	498.221337193623	498.321313031949	0.0999758383259177	0.200019943527877
76912	100	588	4	52	2	2	90	2	2	3	1	112.5	67.5	-1.57639659317195	0.0976625644733398	0.133333333333333	0	0	0	498.454679572023	498.554660043214	0.0999804711900651	0.133366540074348
76978.75	100	589	4	53	2	2	90	2	2	3	1	22.5	157.5	-2.83030153363976	1.21362052925625	0.166666666666667	0	0	0	498.721354626119	498.821339485236	0.0999848591163754	0.16669458290562
77074.5	100	590	4	54	2	2	90	2	2	1	-1	90	135	-2.65984273740685	-0.206202915614087	0.283333333333333	0	0	0	499.104677950963	499.204657202587	0.0999792516231537	0.283338465727866
77145.5	100	591	4	55	2	2	90	2	2	3	1	22.5	67.5	-0.809949440430587	0.7172137114901	0.183333333333333	0	0	0	499.388039334677	499.488001519814	0.0999621851369739	0.183382132090628
77237	100	592	4	56	2	2	90	2	2	3	2	157.5	22.5	-0.895311637357374	-3.07504013662845	0.266666666666667	1	0.542155779432505	1	499.754711681977	499.8546967851	0.09998510312289	0.266710162162781
77291.25	100	593	4	57	2	2	90	2	2	3	1	112.5	157.5	0.469295583166712	1.68774978641065	0.116666666666667	0	0	0	499.971385284793	500.071377214976	0.0999919301830232	0.116688499692827
77370.5	100	594	4	58	2	2	90	2	2	3	2	67.5	22.5	0.59088338870666	-1.90770342984009	0.216666666666667	0	0	0	500.288070078939	500.388045429718	0.0999753507785499	0.216692863963544
77433	100	595	4	59	2	2	90	2	2	0	2	67.5	22.5	2.06711624023113	2.25261881247727	0.15	0	0	0	500.538044417743	500.638035860378	0.0999914426356554	0.14999898802489
77533	100	596	4	60	2	2	90	2	2	0	2	157.5	22.5	-2.1897903279797	2.34339817130416	0.3	0	0	0	500.938059680164	501.038058436941	0.0999987567774951	0.300023819785565
77628.75	100	597	4	61	2	2	90	2	2	0	1	112.5	67.5	2.33193843740629	0.923419902543248	0.283333333333333	0	0	0	501.321404704358	501.421411506832	0.100006802473217	0.283346267417073
