onset	duration	total_event_number	stream_number	event_num_per_stream	timing_predictability	target_col	target_ori	n_targets	n_distractors	is_target	ori_pair_num	att_ori	unatt_ori	gabor_phase_att	gabor_phase_unatt	blank_dur	response	rt	correct	time_stimon	time_stimoff	stim_dur	ISI_dur
5306.5	100	0	0	0	1	2	0	1	1	3	2	157.5	112.5	0.687038084480145	0.81815918081562	0.2	0	0	0	51.1024122280069	51.2023778264411	0.0999655984342098	-1
5381.5	100	1	0	1	1	2	0	1	1	3	1	22.5	157.5	-2.46481163130108	-2.30548988347151	0.2	0	0	0	51.4024075223133	51.502383360872	0.0999758385587484	0.200029695872217
5456.5	100	2	0	2	1	2	0	1	1	3	1	22.5	67.5	2.29862626273111	-2.88728074364614	0.2	0	0	0	51.7023940398358	51.8023774363101	0.099983396474272	0.200010678963736
5531.5	100	3	0	3	1	2	0	1	1	3	1	112.5	67.5	-2.36112355787042	2.83148347726578	0.2	0	0	0	52.0024224922527	52.1023878469132	0.0999653546605259	0.20004505594261
5606.5	100	4	0	4	1	2	0	1	1	0	2	157.5	112.5	-2.20709760665317	-1.21694607658124	0.2	0	0	0	52.3024170554709	52.4023938691244	0.099976813653484	0.20002920855768
5681.5	100	5	0	5	1	2	0	1	1	0	2	157.5	112.5	-1.35922496464483	0.986284213886787	0.2	0	0	0	52.6024194203783	52.7024015977513	0.0999821773730218	0.20002555125393
5756.5	100	6	0	6	1	2	0	1	1	0	1	22.5	67.5	0.775764746934396	-1.74084217044237	0.2	0	0	0	52.9024286118802	53.0024139590096	0.0999853471294045	0.200027014128864
5831.5	100	7	0	7	1	2	0	1	1	0	1	112.5	157.5	1.18185896783264	-1.854420269466	0.2	0	0	0	53.2024360969663	53.3024160801433	0.099979983177036	0.200022137956694
5906.5	100	8	0	8	1	2	0	1	1	0	2	67.5	112.5	2.69755845231286	1.86168306322085	0.2	0	0	0	53.5024426067248	53.6024306355976	0.0999880288727582	0.200026526581496
5981.5	100	9	0	9	1	2	0	1	1	0	1	112.5	67.5	-1.49509438797087	-1.63356634603967	0.2	0	0	0	53.8024544802029	53.9024305625353	0.0999760823324323	0.200023844605312
6056.5	100	10	0	10	1	2	0	1	1	0	1	22.5	157.5	-2.90141276308368	0.351409495643201	0.2	0	0	0	54.1024580642115	54.2024424360134	0.0999843718018383	0.200027501676232
6131.5	100	11	0	11	1	2	0	1	1	0	2	157.5	22.5	-1.9687945175812	-0.30501650003814	0.2	0	0	0	54.4024684748147	54.5024477266707	0.0999792518559843	0.200026038801298
6206.5	100	12	0	12	1	2	0	1	1	0	1	22.5	157.5	-2.0459613014442	-1.09058858813129	0.2	0	0	0	54.7024754721206	54.8024610630237	0.0999855909030885	0.200027745449916
6281.5	100	13	0	13	1	2	0	1	1	0	2	67.5	112.5	2.17890756702083	2.1089983826647	0.2	0	0	0	55.002483444754	55.1024673290085	0.0999838842544705	0.200022381730378
6356.5	100	14	0	14	1	2	0	1	1	0	1	112.5	67.5	-0.593090561378627	3.03615183003705	0.2	0	0	0	55.3024950744584	55.4030906769913	0.100595602532849	0.200027745449916
6431.5	100	15	0	15	1	2	0	1	1	0	2	67.5	22.5	-0.525776175071664	0.64700153597751	0.2	0	0	0	55.602502315538	55.7024847369175	0.0999824213795364	0.199411638546735
6506.5	100	16	0	16	1	2	0	1	1	0	2	67.5	22.5	0.0508716593968486	-1.00191651609425	0.2	0	0	0	55.9025110194925	56.0024944161996	0.0999833967071027	0.200026282574981
6581.5	100	17	0	17	1	2	0	1	1	0	2	67.5	22.5	2.51380614398848	-2.70852564585906	0.2	0	0	0	56.2025185045786	56.3025016572792	0.0999831527005881	0.200024088378996
6656.5	100	18	0	18	1	2	0	1	1	0	1	112.5	157.5	-2.47537302256448	1.76571653160763	0.2	0	0	0	56.5025306218304	56.6025045099668	0.0999738881364465	0.200028964551166
6731.5	100	19	0	19	1	2	0	1	1	0	1	112.5	67.5	-0.756312352489312	2.67062999680787	0.2	0	0	0	56.8025329869706	56.9025144330226	0.0999814460519701	0.200028477003798
6806.5	100	20	0	20	1	2	0	1	1	0	2	157.5	112.5	-1.82939128644686	2.96116722023305	0.2	0	0	0	57.1025402280502	57.2025216741022	0.0999814460519701	0.200025795027614
6881.5	100	21	0	21	1	2	0	1	1	0	1	22.5	157.5	-1.6575572027383	-2.76362010306096	0.2	0	0	0	57.402548688231	57.5025313533843	0.0999826651532203	0.200027014128864
6956.5	100	22	0	22	1	2	0	1	1	0	2	67.5	22.5	2.58762085414335	1.51727107429553	0.2	0	0	0	57.7025549542159	57.8025383506902	0.099983396474272	0.200023600831628
7031.5	100	23	0	23	1	2	0	1	1	0	2	67.5	112.5	-2.49489808214789	-2.22478531555014	0.2	0	0	0	58.0025658523664	58.1025563194416	0.0999904670752585	0.200027501676232
7106.5	100	24	0	24	1	2	0	1	1	0	1	112.5	157.5	-0.947977605774839	-1.16111681516566	0.2	0	0	0	58.3025743125472	58.402585015865	0.100010703317821	0.200017993105575
7181.5	100	25	0	25	1	2	0	1	1	0	1	22.5	67.5	2.37011066333774	1.71573345492849	0.2	0	0	0	58.6025793594308	58.7025603179354	0.0999809585046023	0.199994343565777
7256.5	100	26	0	26	1	2	0	1	1	0	2	157.5	112.5	2.63623826054326	1.63470485668895	0.2	0	0	0	58.9025890387129	59.0025724351872	0.099983396474272	0.200028720777482
7331.5	100	27	0	27	1	2	0	1	1	0	2	157.5	22.5	1.23447764912677	-1.89882143139868	0.2	0	0	0	59.2026004246436	59.3025845526718	0.0999841280281544	0.20002798945643
7406.5	100	28	0	28	1	2	0	1	1	0	1	22.5	67.5	-0.665424651341259	0.71890778950076	0.2	0	0	0	59.5026018142235	59.6025878926739	0.0999860784504563	0.200017261551693
7481.5	100	29	0	29	1	2	0	1	1	0	2	67.5	22.5	-0.0250126588592234	0.342394007980127	0.2	0	0	0	59.802616125904	59.9025946462061	0.099978520302102	0.200028233230114
7556.5	100	30	0	30	1	2	0	1	1	0	1	112.5	157.5	1.1279153806924	-1.18976489625576	0.2	0	0	0	60.1026277556084	60.202610908309	0.0999831527005881	0.200033109402284
7631.5	100	31	0	31	1	2	0	1	1	0	1	112.5	67.5	3.13895851409646	2.65749700902507	0.2	0	0	0	60.4026371911168	60.5026179058477	0.0999807147309184	0.200026282807812
7706.5	100	32	0	32	1	2	0	1	1	0	1	112.5	67.5	2.60931850315161	1.60052546306072	0.2	0	0	0	60.702645407524	60.8026305106468	0.09998510312289	0.200027501676232
7781.5	100	33	0	33	1	2	0	1	1	0	1	22.5	157.5	0.695882714543997	-2.58087387685858	0.2	0	0	0	61.0026531361509	61.1026328755543	0.0999797394033521	0.200022625504062
7856.5	100	34	0	34	1	2	0	1	1	0	2	67.5	22.5	2.79281592043184	-2.78729715431243	0.2	0	0	0	61.3026667165104	61.4026354844682	0.0999687679577619	0.200033840956166
7931.5	100	35	0	35	1	2	0	1	1	0	1	112.5	67.5	-0.481854086499179	0.630088237118098	0.2	0	0	0	61.6026617670432	61.702643944649	0.0999821776058525	0.200026282574981
8006.5	100	36	0	36	1	2	0	1	1	0	2	157.5	112.5	-0.157202394273633	-1.07204241979671	0.2	0	0	0	61.9026719338726	62.0026585001033	0.0999865662306547	0.200027989223599
8081.5	100	37	0	37	1	2	0	1	1	0	2	157.5	22.5	2.22357020356037	0.538876068494535	0.2	0	0	0	62.2026972169988	62.3026711049024	0.0999738879036158	0.200038716895506
8156.5	100	38	0	38	1	2	0	1	1	0	1	22.5	157.5	2.29156255845635	1.66827090323763	0.2	0	0	0	62.5026861724909	62.6026673747692	0.0999812022782862	0.200015067588538
8231.5	100	39	0	39	1	2	0	1	1	0	1	22.5	67.5	1.99339723313599	0.0290253427137492	0.2	0	0	0	62.8026965830941	62.9026753474027	0.0999787643086165	0.20002920832485
8306.5	100	40	0	40	1	2	0	1	1	0	1	22.5	67.5	0.595984900322131	0.980537477094508	0.2	0	0	0	63.102701386204	63.2026903904043	0.0999890042003244	0.200026038801298
8381.5	100	41	0	41	1	2	0	1	1	0	2	67.5	112.5	-2.80480681166994	2.71630195452801	0.2	0	0	0	63.4027086272836	63.5026917799842	0.0999831527005881	0.200018236879259
8456.5	100	42	0	42	1	2	0	1	1	0	2	67.5	112.5	0.142755789710698	1.56726887346233	0.2	0	0	0	63.7027563408483	63.8027041412424	0.0999478003941476	0.200064560864121
8531.5	100	43	0	43	1	2	0	1	1	0	1	22.5	157.5	1.66484841737176	-0.366571713384013	0.2	0	0	0	64.002732130466	64.1027230853215	0.0999909548554569	0.200027989223599
8606.5	100	44	0	44	1	2	0	1	1	0	2	67.5	112.5	-0.168774028478378	1.31269965137625	0.2	0	0	0	64.3027388839982	64.4027174045332	0.0999785205349326	0.200015798676759
8681.5	100	45	0	45	1	2	0	1	1	0	2	157.5	22.5	0.625531843361504	3.07954620710785	0.2	0	0	0	64.6027439308818	64.7027331788559	0.0999892479740083	0.200026526348665
8756.5	100	46	0	46	1	2	0	1	1	0	1	22.5	157.5	1.99256089386401	-0.0432878934510952	0.2	0	0	0	64.9027543417178	65.0027377381921	0.099983396474272	0.200021162861958
8831.5	100	47	0	47	1	2	0	1	1	0	1	22.5	157.5	-1.51423032631886	1.80756901824699	0.2	0	0	0	65.2027647523209	65.3027420535218	0.0999773012008518	0.200027014128864
8906.5	100	48	0	48	1	2	0	1	1	0	1	22.5	67.5	0.168528715785604	0.178878437017001	0.2	0	0	0	65.5027683363296	65.6027497823816	0.0999814460519701	0.200026282807812
8981.5	100	49	0	49	1	2	0	1	1	0	2	157.5	22.5	2.34534097157844	-2.61141530249949	0.2	0	0	0	65.8027770402841	65.9027587301098	0.099981689825654	0.200027257902548
9056.5	100	50	0	50	1	2	0	1	1	0	2	157.5	22.5	2.95136033219574	1.41028406081481	0.2	0	0	0	66.1027820871677	66.2027727980167	0.0999907108489424	0.200023357057944
9131.5	100	51	0	51	1	2	0	1	1	0	1	112.5	157.5	2.52371524205441	-2.22528858317703	0.2	0	0	0	66.402789572021	66.5027749191504	0.0999853471294045	0.200016774004325
9206.5	100	52	0	52	1	2	0	1	1	0	1	112.5	157.5	-3.05230403128663	2.61244354196606	0.2	0	0	0	66.7028046152554	66.8027894746047	0.0999848593492061	0.200029696105048
9281.5	100	53	0	53	1	2	0	1	1	3	1	22.5	157.5	0.752289131103245	2.13128277313739	0.2	0	0	0	67.0028123438824	67.102793302387	0.0999809585046023	0.200022869277745
9356.5	100	54	0	54	1	2	0	1	1	3	1	22.5	67.5	1.22412951485526	1.0257102520761	0.2	0	0	0	67.3028186098672	67.4028037129901	0.09998510312289	0.200025307480246
9431.5	100	55	0	55	1	2	0	1	1	3	1	112.5	67.5	2.08155042444176	2.9072350420235	0.2	0	0	0	67.6028382852674	67.7028236323968	0.0999853471294045	0.200034572277218
9506.5	100	56	0	56	1	2	0	1	1	1	-1	0	135	2.38469868934527	-2.88183651838805	0.2	0	0	0	67.9028479645494	68.0028274601791	0.0999794956296682	0.20002433215268
9581.5	100	57	0	57	1	2	0	1	1	3	1	112.5	157.5	-0.114888225633782	1.79750265725219	0.2	0	0	0	68.2028539865278	68.3028417716268	0.0999877850990742	0.200026526348665
9656.5	100	58	0	58	1	2	0	1	1	3	2	157.5	112.5	-0.518727087138808	2.68965775285237	0.2	0	0	0	68.5028624467086	68.6028473062906	0.0999848595820367	0.20002067508176
9731.5	100	59	0	59	1	2	0	1	1	3	2	67.5	22.5	-2.54965809710339	-1.36960438499927	0.2	0	0	0	68.8028750517406	68.9028516216204	0.0999765698798001	0.200027745449916
9806.5	100	60	0	60	1	2	0	1	1	3	2	157.5	22.5	2.09618482993815	-0.678105746808444	0.2	0	0	0	69.1028764415532	69.2028632513247	0.099986809771508	0.200024819932878
9881.5	100	61	0	61	1	2	0	1	1	0	1	22.5	157.5	1.56028395055837	-2.78375775576957	0.2	0	0	0	69.4028841701802	69.5028675668873	0.0999833967071027	0.200020918855444
9956.5	100	62	0	62	1	2	0	1	1	0	2	67.5	112.5	2.26518798481784	1.43092515822575	0.2	0	0	0	69.702894093236	69.8028748079669	0.0999807147309184	0.200026526348665
10031.5	100	63	0	63	1	2	0	1	1	0	1	112.5	157.5	-0.890245401869118	-3.02434487646874	0.2	0	0	0	70.0029020658694	70.1028874129988	0.0999853471294045	0.200027257902548
10106.5	100	64	0	64	1	2	0	1	1	0	1	112.5	67.5	-1.51239174270879	0.951339572434509	0.2	0	0	0	70.3028915089089	70.402914890321	0.100023381412029	0.200004095910117
10181.5	100	65	0	65	1	2	0	1	1	0	1	22.5	67.5	-1.03706703117979	0.166480566319507	0.2	0	0	0	70.6029206928797	70.7028992131818	0.099978520302102	0.200005802558735
10256.5	100	66	0	66	1	2	0	1	1	0	2	157.5	22.5	1.07939683589526	1.07975400434063	0.2	0	0	0	70.9029296406079	71.0029076733626	0.0999780327547342	0.2000304274261
10331.5	100	67	0	67	1	2	0	1	1	0	2	157.5	22.5	-1.65554319224712	1.39222076497829	0.2	0	0	0	71.2029339561705	71.3029193032999	0.0999853471294045	0.200026282807812
10406.5	100	68	0	68	1	2	0	1	1	0	2	157.5	22.5	-3.13518467232508	3.00523568392389	0.2	0	0	0	71.5029309573583	71.6029106967617	0.0999797394033521	0.200011654058471
10481.5	100	69	0	69	1	2	0	1	1	0	1	22.5	67.5	-0.401696558223687	1.11465494943331	0.2	0	0	0	71.8029372231103	71.9029201320373	0.0999829089269042	0.200026526348665
10556.5	100	70	0	70	1	2	0	1	1	0	2	157.5	112.5	-0.952963168089735	2.43106556697089	0.2	0	0	0	72.10294787772	72.2029441960622	0.0999963183421642	0.200027745682746
10631.5	100	71	0	71	1	2	0	1	1	0	2	67.5	112.5	0.421241492208362	-2.60265471950691	0.2	0	0	0	72.4029685284477	72.5029546068981	0.0999860784504563	0.20002433238551
10706.5	100	72	0	72	1	2	0	1	1	0	1	22.5	67.5	0.0151556480188657	0.080532518134826	0.2	0	0	0	72.7029669922777	72.8029598975554	0.0999929052777588	0.200012385379523
10781.5	100	73	0	73	1	2	0	1	1	3	1	112.5	67.5	3.09030115249731	1.04307270346587	0.2	0	0	0	73.0029866676778	73.1029944452457	0.100007777567953	0.200026770122349
10856.5	100	74	0	74	1	2	0	1	1	3	1	22.5	67.5	-2.24502019363433	2.98558288670033	0.2	0	0	0	73.3029826937709	73.4029631644953	0.0999804707244039	0.199988248525187
10931.5	100	75	0	75	1	2	0	1	1	3	2	157.5	22.5	2.62397330554799	-1.35745707630847	0.2	0	0	0	73.6029879844282	73.7029735750984	0.0999855906702578	0.200024819932878
11006.5	100	76	0	76	1	2	0	1	1	2	-1	135	0	3.0423159419868	2.35820605257288	0.2	0	0	0	73.9029952255078	74.0029803286307	0.09998510312289	0.200021650409326
11081.5	100	77	0	77	1	2	0	1	1	3	2	67.5	22.5	1.01035803560935	0.393161499147903	0.2	0	0	0	74.2030324551743	74.3030014671385	0.0999690119642764	0.200052126543596
11156.75	100	78	0	78	1	2	0	1	1	3	2	67.5	112.5	0.070823641655009	2.58690339965611	0.2	1	0.492233079159632	-1	74.5030484735034	74.6030074891169	0.0999590156134218	0.200047006364912
11231.5	100	79	0	79	1	2	0	1	1	3	1	112.5	157.5	-1.10246171264947	-0.825684772608981	0.2	0	0	0	74.8030354785733	74.9030203379225	0.0999848593492061	0.20002798945643
11306.5	100	80	0	80	1	2	0	1	1	3	2	157.5	112.5	2.91655094588511	-1.16827598323156	0.2	0	0	0	75.1030310166534	75.2030851182062	0.100054101552814	0.200010678730905
11381.5	100	81	0	81	1	2	0	1	1	0	2	67.5	22.5	-0.0918702649917917	2.23195790612426	0.2	0	0	0	75.4030138768721	75.5030443286523	0.100030451780185	0.199928758665919
11456.75	100	82	0	82	1	2	0	1	1	0	1	22.5	67.5	2.5484505378466	0.675911078609827	0.2	0	0	0	75.7030589084607	75.8030284079723	0.0999694995116442	0.200014579808339
11531.75	100	83	0	83	1	2	0	1	1	0	1	112.5	67.5	0.794282619399484	0.944421389213287	0.2	0	0	0	76.0030554221012	76.1030380872544	0.0999826651532203	0.200027014128864
11606.75	100	84	0	84	1	2	0	1	1	0	2	157.5	22.5	-2.39331349419729	0.669002831513426	0.2	0	0	0	76.3030750975013	76.4030458158813	0.0999707183800638	0.200037010246888
11681.75	100	85	0	85	1	2	0	1	1	0	2	157.5	112.5	-0.0718033923079746	2.02340703996269	0.2	0	0	0	76.603087214753	76.7030569580384	0.0999697432853281	0.20004139887169
11756.75	100	86	0	86	1	2	0	1	1	0	1	112.5	157.5	-0.87310513089518	-0.898943805528561	0.2	0	0	0	76.9030737322755	77.0030615173746	0.0999877850990742	0.200016774237156
11831.75	100	87	0	87	1	2	0	1	1	0	2	157.5	112.5	-0.615690945599618	-2.7655506818854	0.2	0	0	0	77.2030936514493	77.3030675393529	0.0999738879036158	0.200032134074718
11906.75	100	88	0	88	1	2	0	1	1	0	2	157.5	22.5	-2.39473834914915	2.38627249432733	0.2	0	0	0	77.5031230791938	77.6030735615641	0.0999504823703319	0.200055539840832
11981.75	100	89	0	89	1	2	0	1	1	0	2	67.5	22.5	-0.328045150709487	0.769847152863352	0.2	0	0	0	77.8031010632403	77.9030820217449	0.0999809585046023	0.200027501676232
12056.75	100	90	0	90	1	2	0	1	1	0	2	67.5	112.5	-1.27547131169569	-2.72059542312855	0.2	0	0	0	78.1031058663502	78.2031243713573	0.100018505007029	0.200023844605312
12131.75	100	91	0	91	1	2	0	1	1	0	2	157.5	112.5	-1.56194775420077	2.88764263455369	0.2	0	0	0	78.4031318807974	78.5031133268494	0.0999814460519701	0.200007509440184
12206.75	100	92	0	92	1	2	0	1	1	0	2	157.5	22.5	1.91368983740875	2.66283349656822	0.2	0	0	0	78.7031437542755	78.8031200803816	0.0999763261061162	0.2000304274261
12281.75	100	93	0	93	1	2	0	1	1	0	1	112.5	67.5	-1.17355630722036	0.319738385671466	0.2	0	0	0	79.0031480698381	79.1031324416399	0.0999843718018383	0.20002798945643
12356.75	100	94	0	94	1	2	0	1	1	0	1	112.5	67.5	-0.363828051387798	-1.15364079360971	0.2	0	0	0	79.3031487280969	79.4031243226491	0.0999755945522338	0.200016286456957
12431.75	100	95	0	95	1	2	0	1	1	0	1	22.5	157.5	-2.32005865708854	1.54343514718067	0.2	0	0	0	79.6031542625278	79.7031361961272	0.0999819335993379	0.200029939878732
12506.75	100	96	0	96	1	2	0	1	1	0	2	157.5	112.5	-2.17641847779285	1.90208798226748	0.2	0	0	0	79.9031666235533	80.003142462112	0.0999758385587484	0.2000304274261
12581.75	100	97	0	97	1	2	0	1	1	0	1	22.5	67.5	2.92101200251829	2.19594809722358	0.2	0	0	0	80.2031721582171	80.3031509222928	0.0999787640757859	0.200029696105048
12656.75	100	98	0	98	1	2	0	1	1	0	1	112.5	157.5	-2.83954115215151	0.474832510653874	0.2	0	0	0	80.5031772051007	80.6031593824737	0.0999821773730218	0.200026282807812
12731.75	100	99	0	99	1	2	0	1	1	0	2	67.5	22.5	0.676759431708722	1.81708063158255	0.2	0	0	0	80.8031815204304	80.9031654046848	0.0999838842544705	0.200022137956694
12806.75	100	100	0	100	1	2	0	1	1	0	2	157.5	112.5	-2.13098386146982	2.9017796877425	0.2	0	0	0	81.1031982700806	81.2031775219366	0.0999792518559843	0.200032865395769
12881.75	100	101	0	101	1	2	0	1	1	0	2	157.5	112.5	0.314811677394177	1.27378559906928	0.2	0	0	0	81.4032089246903	81.5032101192046	0.100001194514334	0.200031402753666
12956.75	100	102	0	102	1	2	0	1	1	0	1	22.5	67.5	1.71189975902382	-0.503782130343559	0.2	0	0	0	81.7032108020503	81.8031905414537	0.0999797394033521	0.200000682845712
13031.75	100	103	0	103	1	2	0	1	1	0	1	22.5	157.5	0.566229525828663	-2.23401592218335	0.2	0	0	0	82.0032180431299	82.1032007082831	0.0999826651532203	0.200027501676232
13106.75	100	104	0	104	1	2	0	1	1	0	1	112.5	67.5	1.24900331074203	-1.50554735145467	0.2	0	0	0	82.3032260157634	82.4032074618153	0.0999814460519701	0.200025307480246
13181.75	100	105	0	105	1	2	0	1	1	0	2	67.5	112.5	0.133561744647699	0.294163225312456	0.2	0	0	0	82.6032576377038	82.7032454230357	0.0999877853319049	0.200050175888464
13256.75	100	106	0	106	1	2	0	1	1	0	1	22.5	157.5	2.79186882736559	2.83525134402736	0.2	0	0	0	82.9032709740568	83.0032353536226	0.0999643795657903	0.200025551021099
13331.75	100	107	0	107	1	2	0	1	1	0	2	157.5	22.5	-0.359856964759736	-2.45103708351415	0.2	0	0	0	83.2032516400795	83.3032323548105	0.0999807147309184	0.200016286456957
13406.75	100	108	0	108	1	2	0	1	1	0	2	157.5	112.5	-1.40997725264579	0.704513052879441	0.2	0	0	0	83.5032593689393	83.6032439845148	0.0999846155755222	0.200027014128864
13481.75	100	109	0	109	1	2	0	1	1	0	2	67.5	22.5	-1.27325270405075	2.21354936892497	0.2	0	0	0	83.803265878465	83.9032461056486	0.0999802271835506	0.200021893950179
13556.75	100	110	0	110	1	2	0	1	1	0	2	67.5	22.5	2.52830501112746	-0.754686619281676	0.2	0	0	0	84.103277020622	84.2032555409241	0.099978520302102	0.200030914973468
13631.75	100	111	0	111	1	2	0	1	1	0	2	67.5	112.5	1.37478373518908	-0.411529108841504	0.2	0	0	0	84.4032840179279	84.5032654639799	0.0999814460519701	0.200028477003798
13706.75	100	112	0	112	1	2	0	1	1	0	1	112.5	157.5	1.56273937762232	1.67329823690803	0.2	0	0	0	84.7032917467877	84.8032695357688	0.0999777889810503	0.200026282807812
13781.75	100	113	0	113	1	2	0	1	1	0	1	22.5	157.5	1.03496653266024	-0.778065829351994	0.2	0	0	0	85.0032965498976	85.1032792150509	0.0999826651532203	0.200027014128864
13856.75	100	114	0	114	1	2	0	1	1	0	1	112.5	67.5	1.01085325389466	-3.10918120283417	0.2	0	0	0	85.3033042785246	85.4032923073974	0.0999880288727582	0.200025063473731
13931.75	100	115	0	115	1	2	0	1	1	0	1	112.5	157.5	-1.36367284667201	-1.07804088368892	0.2	0	0	0	85.6033217597287	85.7032949163113	0.0999731565825641	0.200029452331364
14006.75	100	116	0	116	1	2	0	1	1	0	1	112.5	157.5	2.50589111202277	-2.81632170217691	0.2	0	0	0	85.9033241246361	86.0033060584683	0.0999819338321686	0.20002920832485
14081.75	100	117	0	117	1	2	0	1	1	0	2	67.5	112.5	2.19066781777043	2.75264426109075	0.2	0	0	0	86.2033535523806	86.3033164690714	0.0999629166908562	0.20004749391228
14156.75	100	118	0	118	1	2	0	1	1	0	1	112.5	67.5	0.913979713690686	-0.477700544445704	0.2	0	0	0	86.5033495784737	86.603342971066	0.099993392592296	0.200033109402284
14231.75	100	119	0	119	1	2	0	1	1	0	1	22.5	67.5	2.96316885773501	2.35119078333459	0.2	0	0	0	86.8033573071007	86.9033433855511	0.0999860784504563	0.200014336034656
14306.75	100	120	0	120	1	2	0	1	1	0	1	112.5	157.5	1.6310311760636	-2.26136208891589	0.2	0	0	0	87.1033635730855	87.2033542839345	0.0999907108489424	0.200020187534392
14381.75	100	121	0	121	1	2	0	1	1	0	2	67.5	22.5	-2.19423500260469	-0.887078823021444	0.2	0	0	0	87.4033798351884	87.5033632316627	0.099983396474272	0.20002555125393
14456.75	100	122	0	122	1	2	0	1	1	0	2	67.5	112.5	2.66055210931146	1.20696787463475	0.2	0	0	0	87.7033853696194	87.8033665718976	0.0999812022782862	0.200022137956694
14531.75	100	123	0	123	1	2	0	1	1	0	2	67.5	22.5	1.16724710258201	-2.34061413951392	0.2	0	0	0	88.003388953628	88.103376007406	0.0999870537780225	0.200022381730378
14606.75	100	124	0	124	1	2	0	1	1	3	2	67.5	112.5	2.42661785828672	-0.494305410033155	0.2	0	0	0	88.3033998520114	88.4033832484856	0.099983396474272	0.200023844605312
14681.75	100	125	0	125	1	2	0	1	1	3	2	157.5	22.5	-0.147806142538295	-0.460604919692162	0.2	0	0	0	88.6034102626145	88.703387076268	0.099976813653484	0.200027014128864
14756.75	100	126	0	126	1	2	0	1	1	3	1	112.5	157.5	-2.9775580686797	-3.02020263217806	0.2	0	0	0	88.9034177474678	89.0033916356042	0.0999738881364465	0.200030671199784
14831.75	100	127	0	127	1	2	0	1	1	3	2	67.5	22.5	-1.15335704563693	-1.08525850183051	0.2	0	0	0	89.2034220630303	89.3034052157309	0.0999831527005881	0.2000304274261
19023.5	100	128	1	0	2	1	0	1	2	3	2	157.5	22.5	1.91356430192278	2.47400127487647	0.116666666666667	0	0	0	105.970526831225	106.070514128776	0.0999872975517064	-1
19119.25	100	129	1	1	2	1	0	1	2	3	1	22.5	157.5	0.218348210034333	0.368189005628608	0.283333333333333	0	0	0	106.353895504726	106.453856714536	0.0999612098094076	0.28338137594983
19202.75	100	130	1	2	2	1	0	1	2	3	2	67.5	112.5	-1.87094545471111	0.385518947054418	0.233333333333333	0	0	0	106.687214940786	106.787198825041	0.0999838842544705	0.233358226250857
19265.25	100	131	1	3	2	1	0	1	2	3	1	112.5	67.5	-1.68524324673806	2.97426255250392	0.15	0	0	0	106.937224388588	107.03723850497	0.100014116382226	0.150025563547388
19344.25	100	132	1	4	2	1	0	1	2	0	1	112.5	157.5	2.98690143688204	0.534048493506462	0.216666666666667	0	0	0	107.253896748181	107.353881851304	0.09998510312289	0.216658243210986
19419.25	100	133	1	5	2	1	0	1	2	0	1	22.5	67.5	-1.21830239303212	-2.82051812828725	0.2	0	0	0	107.553910084534	107.653891286813	0.0999812022782862	0.200028233230114
19511	100	134	1	6	2	1	0	1	2	0	1	22.5	157.5	1.31202759913043	0.254731736349394	0.266666666666667	0	0	0	107.92058511381	108.020601424621	0.100016310811043	0.266693826997653
19586	100	135	1	7	2	1	0	1	2	0	2	157.5	112.5	-3.05669287279048	1.17650087354927	0.2	0	0	0	108.220591623569	108.320575751597	0.0999841280281544	0.199990198947489
19652.75	100	136	1	8	2	1	0	1	2	0	1	22.5	67.5	-2.76025244415207	-1.26794979815436	0.166666666666667	0	0	0	108.487269359175	108.58725031768	0.0999809585046023	0.166693607578054
19736	100	137	1	9	2	1	0	1	2	0	2	67.5	112.5	1.35935694496305	1.17259718343208	0.233333333333333	0	0	0	108.820642189588	108.920622172998	0.0999799834098667	0.23339187190868
19798.5	100	138	1	10	2	1	0	1	2	0	2	67.5	22.5	0.40339333685841	-0.412658897155179	0.15	0	0	0	109.070611896226	109.170596755808	0.0999848595820367	0.149989723227918
19852.75	100	139	1	11	2	1	0	1	2	0	1	22.5	157.5	-1.76161942729059	2.49553723204471	0.116666666666667	0	0	0	109.287290863227	109.387274259701	0.099983396474272	0.11669410741888
19931.75	100	140	1	12	2	1	0	1	2	0	1	22.5	157.5	-2.50150637864083	2.29519691955538	0.216666666666667	0	0	0	109.60396322282	109.703943693545	0.0999804707244039	0.216688963118941
20031.75	100	141	1	13	2	1	0	1	2	0	1	22.5	157.5	2.2696799899506	-2.20721760596275	0.3	0	0	0	110.004005060531	110.103965782793	0.0999607222620398	0.300061366986483
20094.25	100	142	1	14	2	1	0	1	2	3	1	112.5	67.5	-1.29362978957288	-0.0944751840709608	0.15	0	0	0	110.254002317786	110.353969135089	0.0999668173026294	0.150036534992978
20169.25	100	143	1	15	2	1	0	1	2	3	2	67.5	112.5	1.72100994512473	2.84779144642352	0.2	0	0	0	110.554002488265	110.653981740121	0.0999792518559843	0.200033353175968
20236	100	144	1	16	2	1	0	1	2	3	2	157.5	112.5	-1.74506593953539	0.0139149837787707	0.166666666666667	0	0	0	110.82067949255	110.920658744406	0.0999792518559843	0.166697752429172
20315.25	100	145	1	17	2	1	0	1	2	2	-1	135	0	2.73881326926182	2.65643030381087	0.216666666666667	0	0	0	111.137352583697	111.237335248617	0.0999826649203897	0.216693839291111
20415.25	100	146	1	18	2	1	0	1	2	3	1	112.5	157.5	-0.494490868733762	-1.6231131079875	0.3	0	0	0	111.537365164142	111.637346853968	0.099981689825654	0.300029915524647
20486	100	147	1	19	2	1	0	1	2	3	2	157.5	22.5	2.81515852584041	-2.42125011478466	0.183333333333333	0	0	0	111.820703873411	111.920685319696	0.0999814462848008	0.183357019443065
20577.75	100	148	1	20	2	1	0	1	2	3	2	67.5	22.5	-1.56120214924416	-1.27236972497824	0.266666666666667	0	0	0	112.187373782741	112.287363518495	0.0999897357542068	0.266688463045284
20631.75	100	149	1	21	2	1	0	1	2	3	1	22.5	67.5	-2.10577646942475	0.942566584325848	0.116666666666667	0	0	0	112.404051286867	112.504040047294	0.0999887604266405	0.116687768371776
20706.75	100	150	1	22	2	1	0	1	2	0	1	112.5	67.5	1.76226004503298	-0.312918003913186	0.2	0	0	0	112.704053408001	112.804042899748	0.0999894917476922	0.200013360707089
20777.75	100	151	1	23	2	1	0	1	2	0	1	22.5	67.5	0.305281642952323	2.00945765158075	0.183333333333333	0	0	0	112.987403088715	113.087380146375	0.0999770576599985	0.183360188966617
20844.25	100	152	1	24	2	1	0	1	2	0	1	112.5	157.5	2.48891225017933	2.44696398092047	0.166666666666667	0	0	0	113.254096428165	113.354052761802	0.0999563336372375	0.166716281790286
20911	100	153	1	25	2	1	0	1	2	0	1	112.5	67.5	2.09354930938168	-0.129119517681016	0.166666666666667	0	0	0	113.520767824724	113.620745857479	0.0999780327547342	0.166715062921867
20981.75	100	154	1	26	2	1	0	1	2	0	1	112.5	157.5	-1.58578203713031	-1.52685948555117	0.183333333333333	0	0	0	113.804076301632	113.904077252606	0.100000950973481	0.183330444153398
21069.25	100	155	1	27	2	1	0	1	2	0	2	157.5	112.5	-0.505913354809225	-1.20966734398217	0.25	0	0	0	114.154089382151	114.254073266173	0.0999838840216398	0.250012129545212
21165.25	100	156	1	28	2	1	0	1	2	0	2	67.5	22.5	-2.32033108903319	-0.38891901627076	0.283333333333333	0	0	0	114.537434162339	114.637415364617	0.0999812022782862	0.283360896166414
21244.25	100	157	1	29	2	1	0	1	2	0	1	22.5	67.5	0.778122819639156	-3.1047787031452	0.216666666666667	0	0	0	114.85410749726	114.954091137508	0.0999836402479559	0.216692132642493
21294.25	100	158	1	30	2	1	0	1	2	0	1	112.5	67.5	2.74133451086387	2.28672618621771	0.1	0	0	0	115.054115494015	115.154091576347	0.0999760823324323	0.100024356506765
21344.25	100	159	1	31	2	1	0	1	2	0	1	112.5	157.5	-1.52428520563131	-0.632091314499077	0.1	0	0	0	115.254118371056	115.354098842014	0.0999804709572345	0.100026794709265
21398.5	100	160	1	32	2	1	0	1	2	0	2	157.5	22.5	-3.03797964048212	-0.110013164634144	0.116666666666667	0	0	0	115.470792217879	115.570776102133	0.0999838842544705	0.116693375864998
21461	100	161	1	33	2	1	0	1	2	0	1	112.5	67.5	0.771778745278879	2.95439143221861	0.15	0	0	0	115.720791181782	115.820779942209	0.0999887604266405	0.150015079649165
21552.75	100	162	1	34	2	1	0	1	2	0	1	112.5	67.5	2.15551685603872	0.193872882439241	0.266666666666667	0	0	0	116.087473769207	116.187454483705	0.0999807144980878	0.266693826997653
21623.5	100	163	1	35	2	1	0	1	2	0	1	22.5	157.5	0.443249091588362	-2.78208196624967	0.183333333333333	0	0	0	116.3708110156	116.470789292129	0.0999782765284181	0.183356531895697
21681.75	100	164	1	36	2	1	0	1	2	0	2	157.5	22.5	-1.90162543376839	0.43731296930323	0.133333333333333	0	0	0	116.60416265903	116.704142886214	0.0999802271835506	0.133373366901651
21777.75	100	165	1	37	2	1	0	1	2	0	2	67.5	112.5	0.166197008628065	-2.82657674102514	0.283333333333333	0	0	0	116.987505976344	117.087487910176	0.0999819338321686	0.283363090129569
21852.75	100	166	1	38	2	1	0	1	2	0	1	22.5	157.5	0.861029770233805	0.170266033119926	0.2	0	0	0	117.287514924305	117.387495151255	0.09998022695072	0.200027014128864
21919.5	100	167	1	39	2	1	0	1	2	0	2	157.5	22.5	0.95781797358073	-0.746339035659163	0.166666666666667	0	0	0	117.554192903684	117.654171911534	0.0999790078494698	0.166697752429172
21982	100	168	1	40	2	1	0	1	2	0	2	157.5	112.5	-2.09187748476238	-2.37395814221267	0.15	0	0	0	117.804198450409	117.904180871556	0.0999824211467057	0.150026538874954
22040.25	100	169	1	41	2	1	0	1	2	0	2	67.5	112.5	-0.822754564902854	2.82129879521571	0.133333333333333	0	0	0	118.03754497366	118.137523494195	0.0999785205349326	0.133364102104679
22090.25	100	170	1	42	2	1	0	1	2	0	1	22.5	157.5	-1.92164900588248	-2.07347820151235	0.1	0	0	0	118.237544437405	118.337517350214	0.0999729128088802	0.100020943209529
22161	100	171	1	43	2	1	0	1	2	0	2	157.5	112.5	-0.0496903138722233	-1.05816775111988	0.183333333333333	0	0	0	118.520887779072	118.620866299374	0.099978520302102	0.183370428858325
22236	100	172	1	44	2	1	0	1	2	0	2	67.5	22.5	0.642242577119234	1.2184057624468	0.2	0	0	0	118.820895751705	118.920871590031	0.0999758383259177	0.200029452331364
22315.25	100	173	1	45	2	1	0	1	2	0	2	157.5	22.5	-1.22473225838378	-1.84188390162332	0.216666666666667	0	0	0	119.137570305495	119.237549801124	0.0999794956296682	0.216698715463281
22411	100	174	1	46	2	1	0	1	2	0	1	112.5	157.5	2.52722716494034	-0.188378822174181	0.283333333333333	0	0	0	119.520912403939	119.62089263089	0.09998022695072	0.283362602815032
22511	100	175	1	47	2	1	0	1	2	0	2	157.5	22.5	2.80153067876742	0.555801155431729	0.3	0	0	0	119.920923521509	120.020906430436	0.0999829089269042	0.300030890619382
22594.5	100	176	1	48	2	1	0	1	2	0	1	112.5	67.5	-1.84463580772077	-0.169912868389184	0.233333333333333	0	0	0	120.25426465692	120.354240495246	0.0999758383259177	0.233358226483688
22690.25	100	177	1	49	2	1	0	1	2	0	2	157.5	22.5	1.65214218703671	0.874954281066255	0.283333333333333	0	0	0	120.637606998906	120.737589907832	0.0999829089269042	0.283366503659636
22786	100	178	1	50	2	1	0	1	2	0	1	22.5	157.5	0.786023911478106	1.48017655864938	0.283333333333333	0	0	0	121.020958849695	121.120960044209	0.100001194514334	0.283368941862136
22861	100	179	1	51	2	1	0	1	2	0	2	67.5	112.5	2.04132217495529	1.11347035876359	0.2	0	0	0	121.320960970828	121.420940222451	0.0999792516231537	0.200000926619396
22932	100	180	1	52	2	1	0	1	2	0	2	157.5	22.5	-1.37761617830562	-0.382728035053451	0.183333333333333	0	0	0	121.604302362073	121.704281369923	0.0999790078494698	0.18336213962175
22982	100	181	1	53	2	1	0	1	2	0	2	157.5	22.5	0.770712609603463	-1.99008037374183	0.1	0	0	0	121.804311577929	121.904282784089	0.0999712061602622	0.100030208006501
23048.5	100	182	1	54	2	1	0	1	2	0	2	67.5	112.5	2.46044210182169	1.17882801662945	0.166666666666667	0	0	0	122.070972246816	122.170956862625	0.0999846158083528	0.166689462726936
23144.5	100	183	1	55	2	1	0	1	2	0	1	112.5	67.5	0.245990488563677	-2.92777148357531	0.283333333333333	0	0	0	122.454321659403	122.554305299884	0.0999836404807866	0.283364796778187
23211	100	184	1	56	2	1	0	1	2	0	2	157.5	112.5	1.11598181506591	-2.1144934381061	0.166666666666667	0	0	0	122.720996469492	122.820981572615	0.09998510312289	0.166691169608384
23298.5	100	185	1	57	2	1	0	1	2	0	2	67.5	112.5	-0.508867410861352	-0.164659124349888	0.25	0	0	0	123.071005404927	123.170987582533	0.0999821776058525	0.250023832311854
23357	100	186	1	58	2	1	0	1	2	0	1	22.5	157.5	-1.62785739299076	1.16804122465948	0.133333333333333	0	0	0	123.304349977989	123.404328986071	0.0999790080823004	0.133362395456061
23423.5	100	187	1	59	2	1	0	1	2	0	2	67.5	22.5	1.71024405278182	0.921186918742812	0.166666666666667	0	0	0	123.57100308896	123.670988679631	0.0999855906702578	0.166674102889374
23519.5	100	188	1	60	2	1	0	1	2	0	1	22.5	67.5	-0.682556635102145	2.79556265372194	0.283333333333333	0	0	0	123.954347625142	124.054332728498	0.0999851033557206	0.283358945511281
23590.25	100	189	1	61	2	1	0	1	2	0	2	67.5	112.5	-2.1019964721843	-1.19672672998947	0.183333333333333	0	0	0	124.237699500285	124.337673144415	0.0999736441299319	0.183366771787405
23648.5	100	190	1	62	2	1	0	1	2	0	1	112.5	67.5	2.40099725207798	2.32783004547248	0.133333333333333	0	0	0	124.471025056206	124.571025519399	0.100000463193282	0.133351911790669
23740.25	100	191	1	63	2	1	0	1	2	0	2	157.5	112.5	1.70678147358093	1.23519493415966	0.266666666666667	0	0	0	124.837718615076	124.937701279996	0.0999826649203897	0.266693095676601
23802.75	100	192	1	64	2	1	0	1	2	0	1	112.5	157.5	-1.24546391458705	2.2091544387993	0.15	0	0	0	125.087725868216	125.187711459119	0.0999855909030885	0.150024588219821
23890.25	100	193	1	65	2	1	0	1	2	0	1	22.5	157.5	-1.5726550949286	-0.180886030577705	0.25	0	0	0	125.437736022985	125.537719175685	0.0999831527005881	0.250024563865736
23990.25	100	194	1	66	2	1	0	1	2	0	2	67.5	22.5	0.428960040227875	-2.24128037191276	0.3	0	0	0	125.837749334984	125.937752236379	0.100002901395783	0.300030159298331
24090.25	100	195	1	67	2	1	0	1	2	0	1	112.5	67.5	1.83833188627175	-1.0368869907408	0.3	0	0	0	126.237749481341	126.337729952065	0.0999804707244039	0.29999724496156
24165.25	100	196	1	68	2	1	0	1	2	3	1	112.5	157.5	-2.51175573147353	2.39337341861113	0.2	0	0	0	126.537757697748	126.637736705597	0.0999790078494698	0.200027745682746
24248.5	100	197	1	69	2	1	0	1	2	3	1	22.5	157.5	2.88376236443045	2.58244303278301	0.233333333333333	0	0	0	126.871098101372	126.971081741853	0.0999836404807866	0.233361395774409
24315.25	100	198	1	70	2	1	0	1	2	3	1	22.5	67.5	1.56407803231116	-0.243296275113936	0.166666666666667	0	0	0	127.137769254157	127.237753138412	0.0999838842544705	0.166687512304634
24365.25	100	199	1	71	2	1	0	1	2	1	-1	0	135	-2.14824320143352	-2.00563881652118	0.1	0	0	0	127.337776032044	127.437761622947	0.0999855909030885	0.100022893631831
24423.5	100	200	1	72	2	1	0	1	2	3	2	67.5	112.5	-3.13404739187173	0.111601925059026	0.133333333333333	0	0	0	127.571109146113	127.67109571211	0.0999865659978241	0.133347523165867
24486	100	201	1	73	2	1	0	1	2	3	1	112.5	67.5	1.41593821862197	0.830619197712248	0.15	1	0.475277095800266	1	127.821121763205	127.921110523632	0.0999887604266405	0.150026051094756
24557	100	202	1	74	2	1	0	1	2	3	2	67.5	22.5	0.268224627231845	1.7434758480167	0.183333333333333	0	0	0	128.104459009599	128.204451427097	0.0999924174975604	0.183348485967144
24657	100	203	1	75	2	1	0	1	2	3	2	157.5	112.5	-1.23037203676422	-0.197670865368325	0.3	0	0	0	128.504474516027	128.604454499204	0.099979983177036	0.300023088930175
24707	100	204	1	76	2	1	0	1	2	0	2	67.5	22.5	-1.32741023079796	0.0498693464038538	0.1	0	0	0	128.704480562359	128.804462983739	0.0999824213795364	0.100026063155383
24777.75	100	205	1	77	2	1	0	1	2	0	1	112.5	67.5	1.43526398074353	0.0192666782069812	0.183333333333333	0	0	0	128.98782463558	129.087807300733	0.0999826651532203	0.183361651841551
24861	100	206	1	78	2	1	0	1	2	0	2	157.5	22.5	-2.96949064132469	-0.948451046822067	0.233333333333333	0	0	0	129.321167477407	129.421173548326	0.100006070919335	0.233360176673159
24923.5	100	207	1	79	2	1	0	1	2	0	1	22.5	67.5	-2.73528471121152	-2.48977271976749	0.15	0	0	0	129.571166685084	129.671152519761	0.0999858346767724	0.149993136757985
25002.75	100	208	1	80	2	1	0	1	2	0	1	112.5	67.5	-2.81018206966397	-2.98945596848886	0.216666666666667	0	0	0	129.887855623849	129.987826829776	0.0999712059274316	0.216703104088083
25090.25	100	209	1	81	2	1	0	1	2	0	1	112.5	67.5	-0.502838697924999	-2.61105554562963	0.25	0	0	0	130.237853588071	130.337834058795	0.0999804707244039	0.250026758294553
25182	100	210	1	82	2	1	0	1	2	0	1	112.5	157.5	0.579281512933377	1.69653491723196	0.266666666666667	0	0	0	130.604537882144	130.704512013821	0.0999741316772997	0.266703823348507
25236	100	211	1	83	2	1	0	1	2	0	1	22.5	67.5	0.49223561656882	-1.96132111685984	0.116666666666667	0	0	0	130.821203927044	130.921194881666	0.0999909546226263	0.116691913222894
25336	100	212	1	84	2	1	0	1	2	0	1	112.5	157.5	2.341403637623	-1.54065184603701	0.3	0	0	0	131.221220408566	131.321197709767	0.0999773012008518	0.300025526899844
25419.5	100	213	1	85	2	1	0	1	2	0	1	22.5	67.5	1.24745607655822	-2.99159509425431	0.233333333333333	0	0	0	131.554555692244	131.654538357398	0.0999826651532203	0.233357982477173
25511.25	100	214	1	86	2	1	0	1	2	0	2	157.5	22.5	-0.873425425044909	-2.79657900529545	0.266666666666667	0	0	0	131.921255590161	132.021214849781	0.0999592596199363	0.266717232763767
25594.5	100	215	1	87	2	1	0	1	2	0	1	22.5	157.5	-0.316406719384729	2.1189994520269	0.233333333333333	0	0	0	132.254584535025	132.354560129577	0.0999755945522338	0.233369685243815
25657	100	216	1	88	2	1	0	1	2	0	1	22.5	157.5	-1.06890382592482	-2.83484019771311	0.15	0	0	0	132.504589350196	132.604569333605	0.0999799834098667	0.150029220618308
25732	100	217	1	89	2	1	0	1	2	0	2	157.5	22.5	2.32383234696684	-1.06116168973009	0.2	0	0	0	132.804594884859	132.90457754978	0.0999826649203897	0.20002555125393
25782	100	218	1	90	2	1	0	1	2	0	2	67.5	112.5	1.60426780395079	0.279126026322003	0.1	0	0	0	133.00459312927	133.104610171635	0.100017042364925	0.100015579489991
25844.5	100	219	1	91	2	1	0	1	2	0	2	67.5	112.5	-1.41355346002592	-3.0712942109467	0.15	0	0	0	133.25463037123	133.354584510671	0.0999541394412518	0.150020199595019
25927.75	100	220	1	92	2	1	0	1	2	0	1	112.5	157.5	0.112977779531528	1.7898311900166	0.233333333333333	0	0	0	133.587946881773	133.687931497348	0.0999846155755222	0.233362371101975
25986.25	100	221	1	93	2	1	0	1	2	0	1	22.5	67.5	-2.76027667298948	-0.878975832566122	0.133333333333333	0	0	0	133.821289016632	133.921273632208	0.0999846155755222	0.133357519283891
26044.5	100	222	1	94	2	1	0	1	2	0	1	112.5	157.5	1.36367881447283	2.48943171236384	0.133333333333333	0	0	0	134.054629688617	134.154613572871	0.0999838842544705	0.133356056408957
26119.5	100	223	1	95	2	1	0	1	2	3	1	22.5	67.5	-1.65525644073004	1.43325530303223	0.2	0	0	0	134.354636198375	134.454618863529	0.0999826651532203	0.200022625504062
26202.75	100	224	1	96	2	1	0	1	2	3	2	67.5	112.5	1.35340034438153	-1.19767835264923	0.233333333333333	0	0	0	134.687978064874	134.787960730027	0.0999826651532203	0.233359201345593
26302.75	100	225	1	97	2	1	0	1	2	3	1	22.5	157.5	-0.450416797485506	0.346502594150849	0.3	0	0	0	135.087989426451	135.187973554479	0.0999841280281544	0.300028696423396
26398.75	100	226	1	98	2	1	0	1	2	2	-1	135	0	-0.709633064120161	2.44808114550551	0.283333333333333	0	0	0	135.471330305794	135.571307606995	0.0999773012008518	0.283356751315296
26486.25	100	227	1	99	2	1	0	1	2	3	1	112.5	157.5	-2.61187746185346	2.63439341020931	0.25	0	0	0	135.82134094811	135.921327026561	0.0999860784504563	0.250033341115341
26548.75	100	228	1	100	2	1	0	1	2	3	2	157.5	112.5	2.39009918843393	-1.55309594274922	0.15	0	0	0	136.071343325078	136.171327453107	0.0999841280281544	0.150016298517585
26615.25	100	229	1	101	2	1	0	1	2	3	1	112.5	67.5	0.438658381991944	-2.58735068530516	0.166666666666667	0	0	0	136.33801715984	136.438002262963	0.09998510312289	0.16668970673345
26694.5	100	230	1	102	2	1	0	1	2	3	2	67.5	22.5	-1.44269074181975	0.888372101265342	0.216666666666667	0	0	0	136.654695127159	136.754682912258	0.0999877850990742	0.216692864196375
26794.5	100	231	1	103	2	1	0	1	2	0	2	157.5	112.5	0.818202661704977	3.14072491408518	0.3	0	0	0	137.054703562986	137.154694517609	0.0999909546226263	0.300020650727674
26886.25	100	232	1	104	2	1	0	1	2	0	2	67.5	22.5	0.70431844735915	-1.67072822733009	0.266666666666667	0	0	0	137.421384687535	137.521363939159	0.0999792516231537	0.266690169926733
26936.25	100	233	1	105	2	1	0	1	2	0	1	22.5	67.5	-1.7644617542916	2.21276560409315	0.1	0	0	0	137.621391221648	137.721371692372	0.0999804707244039	0.100027282489464
27019.5	100	234	1	106	2	1	0	1	2	0	2	157.5	112.5	1.3587291371225	1.12362801803412	0.233333333333333	0	0	0	137.954737232998	138.054713802878	0.0999765698798001	0.233365540625528
27115.25	100	235	1	107	2	1	0	1	2	0	2	157.5	112.5	-0.40584126073323	2.43153566512815	0.283333333333333	0	0	0	138.338076161686	138.438061021268	0.0999848595820367	0.283362358808517
27169.5	100	236	1	108	2	1	0	1	2	0	2	67.5	112.5	0.845062265002457	-2.6568243004202	0.116666666666667	0	0	0	138.554744888563	138.654735843185	0.0999909546226263	0.116683867294341
27257	100	237	1	109	2	1	0	1	2	0	1	112.5	157.5	-2.38418791181733	2.1135387642809	0.25	0	0	0	138.904760894831	139.004771354143	0.100010459311306	0.250025051645935
27311.25	100	238	1	110	2	1	0	1	2	0	1	112.5	157.5	1.79267427002598	1.43272452159217	0.116666666666667	0	0	0	139.121430109255	139.221412286628	0.0999821773730218	0.116658755112439
27373.75	100	239	1	111	2	1	0	1	2	0	2	157.5	22.5	-2.83189700483852	1.96297078660601	0.15	0	0	0	139.371433217777	139.471412469633	0.0999792518559843	0.150020931148902
27448.75	100	240	1	112	2	1	0	1	2	0	1	112.5	157.5	-2.00078700220858	-1.25601786122509	0.2	0	0	0	139.671444603708	139.771427025087	0.0999824213795364	0.200032134074718
27536.25	100	241	1	113	2	1	0	1	2	0	2	157.5	22.5	-2.9058870871963	-1.83452108695976	0.25	0	0	0	140.021452320274	140.121433278779	0.0999809585046023	0.250025295186788
27590.25	100	242	1	114	2	1	0	1	2	0	1	112.5	67.5	0.529826641352915	-2.71595162803848	0.116666666666667	0	0	0	140.238128849072	140.338110051351	0.0999812022782862	0.116695570293814
27690.25	100	243	1	115	2	1	0	1	2	0	2	67.5	112.5	-2.50603925124696	-1.92621988409894	0.3	0	0	0	140.638165566837	140.738134091021	0.099968524184078	0.300055515486747
27761.25	100	244	1	116	2	1	0	1	2	0	2	67.5	22.5	2.46495296913891	-0.132816900250733	0.183333333333333	0	0	0	140.921491841786	141.021469143219	0.0999773014336824	0.183357750764117
27852.75	100	245	1	117	2	1	0	1	2	0	2	67.5	112.5	0.37865731519654	-2.24414709580201	0.266666666666667	0	0	0	141.288156387396	141.388151486637	0.099995099240914	0.266687244176865
27911.25	100	246	1	118	2	1	0	1	2	0	2	157.5	112.5	1.27195813529772	-0.315335212702479	0.133333333333333	0	0	0	141.521491695428	141.621480699629	0.0999890042003244	0.133340208791196
27965.25	100	247	1	119	2	1	0	1	2	0	2	67.5	22.5	-2.64184081629829	2.3510720003665	0.116666666666667	0	0	0	141.738168224227	141.838147719856	0.0999794956296682	0.116687524598092
28015.25	100	248	1	120	2	1	0	1	2	0	2	157.5	112.5	-1.08549989371574	2.08117030128974	0.1	0	0	0	141.938172564143	142.038154253969	0.099981689825654	0.100024844286963
28102.75	100	249	1	121	2	1	0	1	2	0	2	67.5	22.5	0.425161104350639	0.424755925990049	0.25	0	0	0	142.288181012031	142.38816635916	0.0999853471294045	0.250026758061722
28190.25	100	250	1	122	2	1	0	1	2	0	1	22.5	67.5	2.42973521761846	-1.71240861700801	0.25	0	0	0	142.638197018299	142.73817724525	0.09998022695072	0.250030659139156
28269.5	100	251	1	123	2	1	0	1	2	0	2	157.5	112.5	0.38410754699604	3.11108962340819	0.216666666666667	0	0	0	142.954866452143	143.054848629516	0.0999821773730218	0.216689206892624
28369.5	100	252	1	124	2	1	0	1	2	0	1	22.5	67.5	-3.07295908099818	2.05882202828561	0.3	0	0	0	143.354876838392	143.454894855851	0.100018017459661	0.300028208876029
28448.75	100	253	1	125	2	1	0	1	2	0	2	67.5	112.5	-1.85111292246271	1.42730091330961	0.216666666666667	0	0	0	143.671561144758	143.771535520209	0.0999743754509836	0.216666288906708
28515.25	100	254	1	126	2	1	0	1	2	0	1	22.5	157.5	-1.0253560388743	-0.475823353376958	0.166666666666667	0	0	0	143.938225470716	144.038208867423	0.0999833967071027	0.166689950507134
28573.75	100	255	1	127	2	1	0	1	2	0	2	67.5	22.5	0.0694460564357287	2.95588583349143	0.133333333333333	0	0	0	144.171561510302	144.271543444134	0.0999819338321686	0.13335264287889
28627.75	100	256	1	128	2	1	0	1	2	0	2	157.5	112.5	-2.31013812975344	0.228756737981175	0.116666666666667	0	0	0	144.3882438906	144.488224361325	0.0999804707244039	0.116700446465984
28719.5	100	257	1	129	2	1	0	1	2	0	1	22.5	67.5	-0.10041695173342	0.914387017085006	0.266666666666667	0	0	0	144.754917457001	144.854900122155	0.0999826651532203	0.266693095676601
28802.75	100	258	1	130	2	1	0	1	2	0	2	67.5	22.5	1.08394085383389	-1.98821644408021	0.233333333333333	0	0	0	145.088260786608	145.18824223266	0.0999814460519701	0.233360664453357
28882	100	259	1	131	2	1	0	1	2	0	2	67.5	22.5	1.59676636441794	-2.73820751771267	0.216666666666667	0	0	0	145.404938753927	145.504944337066	0.100005583139136	0.216696521267295
28982	100	260	1	132	2	1	0	1	2	3	1	112.5	157.5	2.68618045906112	1.48835844649222	0.3	0	0	0	145.804972789716	145.904929854674	0.0999570649582893	0.300028452649713
29073.75	100	261	1	133	2	1	0	1	2	3	2	67.5	22.5	3.08302081249055	-0.517715675505685	0.266666666666667	0	0	0	146.171618074179	146.271598545136	0.0999804709572345	0.266688219504431
29148.75	100	262	1	134	2	1	0	1	2	3	1	22.5	67.5	2.69135104488367	-0.580653123197298	0.2	0	0	0	146.471658961149	146.571640163427	0.0999812022782862	0.200060416013002
29198.75	100	263	1	135	2	1	0	1	2	3	2	157.5	112.5	-1.41820838926637	2.24286527248886	0.1	0	0	0	146.671666226583	146.771626461297	0.099960234714672	0.100026063155383
31578	100	264	2	0	2	2	90	1	2	3	1	22.5	67.5	-1.30433991943963	1.75069034167065	0.2	0	0	0	156.188564548967	156.2885406313	0.0999760823324323	-1
31673.75	100	265	2	1	2	2	90	1	2	3	2	67.5	112.5	2.96335160461922	0.988300790813328	0.283333333333333	0	0	0	156.571921519702	156.671881266637	0.0999597469344735	0.283380888402462
31765.5	100	266	2	2	2	2	90	1	2	3	1	112.5	157.5	-0.834362789177405	-0.792912721834555	0.266666666666667	0	0	0	156.938579238486	157.038562635193	0.0999833967071027	0.266697971848771
31853	100	267	2	3	2	2	90	1	2	3	2	157.5	112.5	-0.901992365619496	-2.87316045350653	0.25	0	0	0	157.288598901825	157.388578397455	0.0999794956296682	0.250036266632378
31940.5	100	268	2	4	2	2	90	1	2	0	1	112.5	67.5	-1.68440974045366	2.77425444409387	0.25	0	0	0	157.638604180189	157.73858196917	0.0999777889810503	0.250025782734156
32019.5	100	269	2	5	2	2	90	1	2	0	1	112.5	67.5	-2.67835312970101	3.01941292499265	0.216666666666667	0	0	0	157.955272882711	158.055267006857	0.0999941241461784	0.216690913541242
32090.5	100	270	2	6	2	2	90	1	2	0	1	112.5	67.5	1.50875003056789	2.59293446312641	0.183333333333333	0	0	0	158.238611835754	158.338595720008	0.0999838842544705	0.183344828896224
32173.75	100	271	2	7	2	2	90	1	2	0	2	157.5	22.5	0.953044082545436	-1.20137799970151	0.233333333333333	0	0	0	158.571953214938	158.671934173442	0.0999809585046023	0.233357494929805
32273.75	100	272	2	8	2	2	90	1	2	0	1	112.5	157.5	2.05431165356011	-2.97274848292121	0.3	0	0	0	158.971964332741	159.071951386286	0.0999870535451919	0.300030159298331
32369.5	100	273	2	9	2	2	90	1	2	0	2	67.5	112.5	1.72888213440574	-1.27259539691408	0.283333333333333	0	0	0	159.355310088024	159.455291290302	0.0999812022782862	0.283358701737598
32444.5	100	274	2	10	2	2	90	1	2	0	2	157.5	22.5	2.36829214433623	2.97246508949092	0.2	0	0	0	159.655321473954	159.75530365156	0.0999821776058525	0.200030183652416
32540.5	100	275	2	11	2	2	90	1	2	0	2	67.5	22.5	-0.184770161783687	-1.31252787890073	0.283333333333333	0	0	0	160.038664791267	160.138649894623	0.0999851033557206	0.283361139707267
32603	100	276	2	12	2	2	90	1	2	0	2	157.5	112.5	1.47113789640142	2.43213616419676	0.15	0	0	0	160.288669850444	160.388658610638	0.0999887601938099	0.150019955821335
32698.75	100	277	2	13	2	2	90	1	2	0	1	112.5	67.5	0.980037651686488	1.8971551808213	0.283333333333333	0	0	0	160.672013655305	160.771989981411	0.0999763261061162	0.283355044666678
32748.75	100	278	2	14	2	2	90	1	2	0	1	112.5	157.5	-1.52869890224243	-2.01574746624907	0.1	0	0	0	160.872017995222	160.971997978399	0.099979983177036	0.100028013810515
32819.75	100	279	2	15	2	2	90	1	2	0	2	157.5	22.5	2.2616639064912	-0.00678092280186293	0.183333333333333	0	0	0	161.155364506412	161.255344245816	0.0999797394033521	0.183366528013721
32919.75	100	280	2	16	2	2	90	1	2	0	1	22.5	67.5	1.897730436085	-2.02231733522906	0.3	0	0	0	161.555369528942	161.65535609494	0.0999865659978241	0.300025283126161
32982.25	100	281	2	17	2	2	90	1	2	0	2	67.5	112.5	0.999034545923855	2.06228478903744	0.15	0	0	0	161.805379707832	161.905368712032	0.0999890042003244	0.150023612892255
33032.25	100	282	2	18	2	2	90	1	2	0	1	22.5	157.5	0.128006999549327	0.73938022027315	0.1	0	0	0	162.005385998171	162.105364030926	0.0999780327547342	0.100017286138609
33103	100	283	2	19	2	2	90	1	2	0	1	22.5	67.5	-0.484432219337317	2.84048826709002	0.183333333333333	0	0	0	162.288725438993	162.388709810795	0.0999843718018383	0.183361408067867
33157.25	100	284	2	20	2	2	90	1	2	0	2	157.5	22.5	0.957541296583611	-2.70192954433316	0.116666666666667	0	0	0	162.505398310488	162.605379268993	0.0999809585046023	0.116688499692827
33223.75	100	285	2	21	2	2	90	1	2	0	2	67.5	22.5	-0.652004009051051	-2.67242434427188	0.166666666666667	0	0	0	162.772067025304	162.872064318974	0.0999972936697304	0.166687756311148
33323.75	100	286	2	22	2	2	90	1	2	0	1	112.5	67.5	2.28839027001567	-2.06176660520348	0.3	0	0	0	163.172092040069	163.272076899419	0.0999848593492061	0.30002772109583
33373.75	100	287	2	23	2	2	90	1	2	0	1	112.5	67.5	0.54307722851776	-0.91823756625933	0.1	0	0	0	163.372101012385	163.472073681187	0.0999726688023657	0.100024112965912
33465.5	100	288	2	24	2	2	90	1	2	0	1	112.5	157.5	-0.257519548491819	1.63597445628211	0.266666666666667	0	0	0	163.738777504535	163.838759438135	0.0999819335993379	0.266703823348507
33515.5	100	289	2	25	2	2	90	1	2	0	1	22.5	67.5	1.34079889407748	1.95805976917604	0.1	0	0	0	163.938782575773	164.038759876974	0.0999773012008518	0.100023137638345
33590.5	100	290	2	26	2	2	90	1	2	0	2	157.5	112.5	-1.12297990720728	1.80122726942457	0.2	0	0	0	164.238787134876	164.33877638285	0.0999892479740083	0.200027257902548
33657.25	100	291	2	27	2	2	90	1	2	0	1	112.5	157.5	-2.38853575879265	1.86710806495172	0.166666666666667	0	0	0	164.505464139162	164.605449486291	0.0999853471294045	0.166687756311148
33719.75	100	292	2	28	2	2	90	1	2	0	2	157.5	22.5	-1.44500407309992	-2.32984172601677	0.15	0	0	0	164.755468710558	164.855451375712	0.0999826651532203	0.150019224267453
33782.25	100	293	2	29	2	2	90	1	2	0	1	112.5	157.5	-0.697343982988177	-1.43304517099079	0.15	0	0	0	165.005475963932	165.105460335733	0.0999843718018383	0.150024588219821
33832.25	100	294	2	30	2	2	90	1	2	3	1	22.5	67.5	2.84029137642446	-1.52609287346193	0.1	0	0	0	165.205484204693	165.305468820268	0.0999846155755222	0.100023868959397
33928	100	295	2	31	2	2	90	1	2	3	2	67.5	112.5	-0.93197285165115	-1.83771900933382	0.283333333333333	0	0	0	165.588830691529	165.688807505183	0.099976813653484	0.28336187126115
34028	100	296	2	32	2	2	90	1	2	3	1	22.5	157.5	-1.62265946724514	2.48426692698187	0.3	0	0	0	165.988834738731	166.088821061188	0.0999863224569708	0.300027233548462
34086.25	100	297	2	33	2	2	90	1	2	2	-1	45	90	-1.32249380115202	-1.56930860529771	0.133333333333333	0	0	0	166.222176386043	166.322162952041	0.0999865659978241	0.133355324855074
34178	100	298	2	34	2	2	90	1	2	3	2	157.5	22.5	1.87325095205306	2.32143706446137	0.266666666666667	0	0	0	166.588854828617	166.688835299574	0.0999804709572345	0.266691876575351
34248.75	100	299	2	35	2	2	90	1	2	3	1	112.5	67.5	-3.11791638752853	1.50354091010159	0.183333333333333	0	0	0	166.872189393267	166.972169620218	0.09998022695072	0.183354093693197
34311.25	100	300	2	36	2	2	90	1	2	3	2	67.5	22.5	1.89859708965761	2.81872434356171	0.15	0	0	0	167.122203229461	167.222178336466	0.099975107004866	0.15003360924311
34394.75	100	301	2	37	2	2	90	1	2	3	1	112.5	157.5	2.50001227169476	-0.0809444376076103	0.233333333333333	0	0	0	167.455547290388	167.555530930869	0.0999836404807866	0.233368953922763
34465.5	100	302	2	38	2	2	90	1	2	0	2	67.5	22.5	2.35832765780321	-0.859888665168839	0.183333333333333	0	0	0	167.738884537015	167.838870371459	0.0999858344439417	0.183353606145829
34561.25	100	303	2	39	2	2	90	1	2	0	2	157.5	112.5	-0.669160833714827	1.79023589713894	0.283333333333333	0	0	0	168.122227122774	168.22219979181	0.0999726690351963	0.283356751315296
34636.25	100	304	2	40	2	2	90	1	2	0	1	112.5	157.5	1.84317642647439	-0.639348902910877	0.2	0	0	0	168.422224855283	168.52220825199	0.0999833967071027	0.200025063473731
34690.5	100	305	2	41	2	2	90	1	2	0	2	67.5	22.5	-0.602220460528927	-1.79881223305161	0.116666666666667	0	0	0	168.638898458332	168.738883561688	0.0999851033557206	0.116690206341445
34778	100	306	2	42	2	2	90	1	2	0	1	112.5	157.5	-3.07453591086485	-1.13771338676624	0.25	0	0	0	168.988903493155	169.08888810873	0.0999846155755222	0.25001993146725
34873.75	100	307	2	43	2	2	90	1	2	0	1	22.5	67.5	0.968178308004745	-2.4632171829748	0.283333333333333	0	0	0	169.372249492444	169.472226793645	0.0999773012008518	0.283361383713782
34944.75	100	308	2	44	2	2	90	1	2	0	1	22.5	157.5	0.293621271635179	1.91582616652571	0.183333333333333	0	0	0	169.655591371236	169.755576962139	0.0999855909030885	0.183364577591419
35023.75	100	309	2	45	2	2	90	1	2	0	2	157.5	22.5	2.20694415757642	0.77366989449114	0.216666666666667	0	0	0	169.972294694744	170.072250540834	0.0999558460898697	0.216717732604593
35103	100	310	2	46	2	2	90	1	2	0	2	67.5	22.5	-0.578149321991712	-0.434560054455548	0.216666666666667	0	0	0	170.288947549416	170.388925338397	0.0999777889810503	0.216697008581832
35194.75	100	311	2	47	2	2	90	1	2	0	2	157.5	112.5	1.35634788935246	2.07177192514877	0.266666666666667	0	0	0	170.655620628269	170.755605975399	0.0999853471294045	0.266695289872587
35269.75	100	312	2	48	2	2	90	1	2	0	1	22.5	157.5	2.95734996699195	-1.79800703215185	0.2	0	0	0	170.955636402825	171.055641498417	0.100005095591769	0.2000304274261
35353	100	313	2	49	2	2	90	1	2	0	2	157.5	112.5	2.04994776677389	-0.833681094120992	0.233333333333333	0	0	0	171.288978757104	171.388957033632	0.0999782765284181	0.233337258687243
35440.5	100	314	2	50	2	2	90	1	2	0	2	67.5	22.5	2.05585638826703	1.58260218560096	0.25	0	0	0	171.638984035701	171.738971089246	0.0999870535451919	0.250027002068236
35523.75	100	315	2	51	2	2	90	1	2	0	1	112.5	157.5	-1.95803460503578	0.725800973499859	0.233333333333333	0	0	0	171.972326633753	172.072311736876	0.09998510312289	0.233355544507504
35615.5	100	316	2	52	2	2	90	1	2	0	1	22.5	67.5	2.26097532940724	-1.84813709652213	0.266666666666667	0	0	0	172.339007514529	172.438989935908	0.0999824213795364	0.266695777652785
35694.75	100	317	2	53	2	2	90	1	2	0	2	157.5	112.5	3.12399402890129	0.660040288625643	0.216666666666667	0	0	0	172.655698891263	172.755682531511	0.0999836402479559	0.216708955354989
35753	100	318	2	54	2	2	90	1	2	0	1	22.5	157.5	-0.257982664463379	-2.67700596678203	0.133333333333333	0	0	0	172.889026397606	172.988996628439	0.099970230832696	0.133343866094947
35823.75	100	319	2	55	2	2	90	1	2	0	1	112.5	157.5	0.375985855480505	-1.12326364289707	0.183333333333333	0	0	0	173.172358524054	173.272345090052	0.0999865659978241	0.183361895615235
35898.75	100	320	2	56	2	2	90	1	2	0	1	112.5	67.5	2.33831371175652	3.01765953088358	0.2	0	0	0	173.472359426087	173.572346723638	0.0999872975517064	0.200014336034656
35965.5	100	321	2	57	2	2	90	1	2	0	2	157.5	22.5	-0.596838971496747	2.11879718432182	0.166666666666667	0	0	0	173.739047401818	173.839026165893	0.0999787640757859	0.166700678179041
36028	100	322	2	58	2	2	90	1	2	0	2	67.5	22.5	1.91192941808275	-2.64514363104789	0.15	0	0	0	173.989050510339	174.089035369689	0.0999848593492061	0.150024344446138
36103	100	323	2	59	2	2	90	1	2	0	2	67.5	112.5	-2.9444251702059	0.757359008884975	0.2	0	0	0	174.289055800997	174.38903846615	0.0999826651532203	0.200020431308076
36194.75	100	324	2	60	2	2	90	1	2	0	2	67.5	112.5	2.52558377328765	2.16775816529705	0.266666666666667	0	0	0	174.655733512249	174.755717396503	0.0999838842544705	0.266695046098903
36249	100	325	2	61	2	2	90	1	2	0	1	22.5	157.5	-1.20021559909523	1.64460182344084	0.116666666666667	0	0	0	174.872402726673	174.972381490981	0.0999787643086165	0.116685330169275
36324	100	326	2	62	2	2	90	1	2	0	2	67.5	22.5	-1.3864459316013	0.727656787319214	0.2	0	0	0	175.17240801733	175.272393852007	0.0999858346767724	0.200026526348665
36407.25	100	327	2	63	2	2	90	1	2	0	1	112.5	67.5	-1.58009203291243	-2.3924870959581	0.233333333333333	0	0	0	175.505753541132	175.605738888262	0.0999853471294045	0.233359689125791
36507.25	100	328	2	64	2	2	90	1	2	0	2	67.5	22.5	-2.17947929647852	0.598913919788583	0.3	0	0	0	175.905766609358	176.005747567862	0.0999809585046023	0.30002772109583
36565.5	100	329	2	65	2	2	90	1	2	0	2	67.5	22.5	1.29789603528688	2.63923938986836	0.133333333333333	0	0	0	176.139102648944	176.239089458948	0.0999868100043386	0.13335508108139
36661.5	100	330	2	66	2	2	90	1	2	0	1	112.5	157.5	2.07660684098887	2.4899043317146	0.283333333333333	0	0	0	176.522460107226	176.622453743825	0.0999936365988106	0.283370648277923
36761.5	100	331	2	67	2	2	90	1	2	0	2	67.5	112.5	-1.93275713006327	-2.65539932159078	0.3	0	0	0	176.922452207888	177.022441943409	0.0999897355213761	0.29999846406281
36819.75	100	332	2	68	2	2	90	1	2	0	2	67.5	112.5	-2.83173765311259	1.70183212420164	0.133333333333333	0	0	0	177.155794830294	177.255780908745	0.0999860784504563	0.133352886885405
36915.5	100	333	2	69	2	2	90	1	2	0	2	157.5	22.5	0.146731180235802	0.602021962235428	0.283333333333333	0	0	0	177.53914058581	177.639122031862	0.0999814460519701	0.283359677065164
36982.25	100	334	2	70	2	2	90	1	2	0	1	112.5	67.5	1.37589837756313	2.81178695802512	0.166666666666667	0	0	0	177.805814664345	177.905799036147	0.0999843718018383	0.166692632483318
37049	100	335	2	71	2	2	90	1	2	0	2	157.5	112.5	-2.11119568514676	-2.12267111911783	0.166666666666667	0	0	0	178.072483135154	178.172463362105	0.09998022695072	0.166684099007398
37115.5	100	336	2	72	2	2	90	1	2	3	2	67.5	22.5	-2.88829971722443	2.88594504520371	0.166666666666667	0	0	0	178.339156969683	178.439139147289	0.0999821776058525	0.166693607578054
37211.5	100	337	2	73	2	2	90	1	2	3	2	157.5	112.5	1.53736001424637	0.455624643185903	0.283333333333333	0	0	0	178.7225039443	178.822489535203	0.0999855909030885	0.283364797011018
37282.25	100	338	2	74	2	2	90	1	2	3	1	112.5	157.5	2.00992297655222	2.38359450883572	0.183333333333333	0	0	0	179.005873861257	179.105828244472	0.0999543832149357	0.183384326053783
37365.5	100	339	2	75	2	2	90	1	2	2	-1	45	90	-1.18144236085066	-0.65708314812928	0.233333333333333	0	0	0	179.339182813652	179.439166697673	0.0999838840216398	0.233354569179937
37440.5	100	340	2	76	2	2	90	1	2	3	2	67.5	112.5	-1.4277090390156	1.52925721335524	0.2	0	0	0	179.639190786052	179.739173938986	0.0999831529334188	0.200024088378996
37532.25	100	341	2	77	2	2	90	1	2	3	1	112.5	67.5	0.0883845799093992	1.0432224481076	0.266666666666667	0	0	0	180.005870204186	180.105848480714	0.0999782765284181	0.266696265200153
37586.5	100	342	2	78	2	2	90	1	2	3	1	22.5	67.5	-2.66910191081859	-2.24215074384543	0.116666666666667	0	0	0	180.222541612806	180.322527203709	0.0999855909030885	0.116693132091314
37674	100	343	2	79	2	2	90	1	2	3	1	22.5	157.5	-0.355590232482446	0.866451426258832	0.25	0	0	0	180.572555912193	180.672536139376	0.0999802271835506	0.250028708484024
37753	100	344	2	80	2	2	90	1	2	0	1	22.5	67.5	2.91465173476957	-2.15671779257483	0.216666666666667	0	0	0	180.889230222441	180.989217275986	0.0999870535451919	0.216694083064795
37803	100	345	2	81	2	2	90	1	2	0	2	157.5	22.5	-0.984061197142946	-2.59914945110804	0.1	0	0	0	181.089255773695	181.189219909254	0.0999641355592757	0.100038497708738
37882.25	100	346	2	82	2	2	90	1	2	0	2	67.5	112.5	-0.406884784184719	-0.0612815103704532	0.216666666666667	0	0	0	181.40590814082	181.505913236411	0.100005095591769	0.216688231565058
37974	100	347	2	83	2	2	90	1	2	0	1	112.5	67.5	2.3763851359762	2.52324225905043	0.266666666666667	0	0	0	181.772582926322	181.872563884826	0.0999809585046023	0.266669689910486
38057.25	100	348	2	84	2	2	90	1	2	0	1	22.5	67.5	2.22120975939448	0.125744906268438	0.233333333333333	0	0	0	182.105928693898	182.205913797254	0.0999851033557206	0.233364809071645
38128	100	349	2	85	2	2	90	1	2	0	2	67.5	112.5	3.0953960860324	0.471231760250455	0.183333333333333	0	0	0	182.389266428072	182.489247874124	0.0999814460519701	0.183352630818263
38219.75	100	350	2	86	2	2	90	1	2	0	2	67.5	22.5	-1.7842015018628	-1.00214829522481	0.266666666666667	0	0	0	182.755944870878	182.855928267352	0.099983396474272	0.266696996754035
38274	100	351	2	87	2	2	90	1	2	0	1	112.5	67.5	0.324581693077413	2.4641700779371	0.116666666666667	0	0	0	182.972625056747	183.0726006513	0.0999755945522338	0.116696789395064
38336.5	100	352	2	88	2	2	90	1	2	0	1	22.5	157.5	2.86703529052922	0.608461600806512	0.15	0	0	0	183.222624751972	183.322605222696	0.0999804707244039	0.150024100672454
38386.5	100	353	2	89	2	2	90	1	2	0	2	67.5	22.5	2.10899440897155	0.66765300181192	0.1	0	0	0	183.422627872787	183.522610293934	0.0999824211467057	0.100022650090978
38469.75	100	354	2	90	2	2	90	1	2	0	2	67.5	22.5	0.160305628538395	1.17695572049403	0.233333333333333	0	0	0	183.755978272762	183.855951185338	0.0999729125760496	0.233367978828028
38553	100	355	2	91	2	2	90	1	2	0	2	67.5	112.5	-1.18257063222785	2.93991988034861	0.233333333333333	0	0	0	184.08931648219	184.189300122671	0.0999836404807866	0.233365296851844
38644.75	100	356	2	92	2	2	90	1	2	0	2	157.5	22.5	-2.51865576985711	-2.08282739661103	0.266666666666667	0	0	0	184.456001507817	184.555975151947	0.0999736441299319	0.266701385146007
38732.25	100	357	2	93	2	2	90	1	2	0	1	22.5	67.5	1.48233873203762	-2.89920913586092	0.25	0	0	0	184.806007029954	184.905985794263	0.0999787643086165	0.250031878007576
38807.25	100	358	2	94	2	2	90	1	2	0	1	22.5	67.5	2.82247695920685	0.619918264238643	0.2	0	0	0	185.106008663541	185.205990353366	0.099981689825654	0.200022869277745
38899	100	359	2	95	2	2	90	1	2	0	1	22.5	157.5	1.62539140254884	1.91006782056479	0.266666666666667	0	0	0	185.472720020451	185.572680011392	0.0999599909409881	0.266729667084292
38999	100	360	2	96	2	2	90	1	2	0	2	157.5	22.5	-0.258944624186556	-1.82254901039962	0.3	0	0	0	185.872690665768	185.972674793797	0.0999841280281544	0.30001065437682
39065.5	100	361	2	97	2	2	90	1	2	0	1	22.5	67.5	-0.99057904702273	-2.88545701584195	0.166666666666667	0	0	0	186.139368889155	186.239356186707	0.0999872975517064	0.166694095358253
39144.75	100	362	2	98	2	2	90	1	2	0	1	112.5	157.5	2.01145818130029	1.46583536405616	0.216666666666667	0	0	0	186.456045149593	186.55603147205	0.0999863224569708	0.21668896288611
39199	100	363	2	99	2	2	90	1	2	0	2	157.5	112.5	-0.195239029572477	-0.171076403700976	0.116666666666667	0	0	0	186.672718265094	186.772700930247	0.0999826651532203	0.116686793044209
39299	100	364	2	100	2	2	90	1	2	0	1	22.5	157.5	2.10361807004868	-2.28389899598897	0.3	0	0	0	187.072724994272	187.172706927871	0.0999819335993379	0.30002406402491
39357.25	100	365	2	101	2	2	90	1	2	0	2	157.5	112.5	0.717834887540744	2.70911267525699	0.133333333333333	0	0	0	187.306070298655	187.406049062731	0.0999787640757859	0.133363370783627
39440.5	100	366	2	102	2	2	90	1	2	0	1	22.5	157.5	1.0802554773702	0.538266097057705	0.233333333333333	0	0	0	187.639439228224	187.739401900908	0.0999626726843417	0.233390165492892
39494.75	100	367	2	103	2	2	90	1	2	0	1	22.5	67.5	-2.19947108845889	-3.02291735115382	0.116666666666667	0	0	0	187.856082598912	187.956071115332	0.099988516420126	0.11668069800362
39553	100	368	2	104	2	2	90	1	2	0	1	112.5	157.5	1.30088329759222	-1.52566982266792	0.133333333333333	0	0	0	188.089423758443	188.189405692043	0.0999819335993379	0.133352643111721
39653.25	100	369	2	105	2	2	90	1	2	3	1	22.5	157.5	1.13065205710924	-1.02560853885258	0.3	0	0	0	188.489440727513	188.589418760268	0.0999780327547342	0.300035035470501
39707.25	100	370	2	106	2	2	90	1	2	3	1	112.5	67.5	2.58916843864075	-0.343841495325044	0.116666666666667	0	0	0	188.706108723069	188.806091875769	0.0999831527005881	0.116689962800592
39786.5	100	371	2	107	2	2	90	1	2	3	2	157.5	22.5	-0.896369814135282	0.410509387113687	0.216666666666667	0	0	0	189.022790347459	189.122766185785	0.0999758383259177	0.216698471689597
39836.5	100	372	2	108	2	2	90	1	2	1	-1	90	45	-2.63715524339508	2.20157739826238	0.1	0	0	0	189.222785910126	189.322771744803	0.0999858346767724	0.100019724341109
39907.25	100	373	2	109	2	2	90	1	2	3	2	157.5	112.5	2.53521775856949	0.0562820179409051	0.183333333333333	0	0	0	189.506128276465	189.606109478744	0.0999812022782862	0.183356531662866
39994.75	100	374	2	110	2	2	90	1	2	3	2	67.5	22.5	-2.14836426211507	-2.83065395731759	0.25	1	0.625276815379038	1	189.856136968359	189.956119633513	0.0999826651532203	0.250027489615604
40090.75	100	375	2	111	2	2	90	1	2	3	1	22.5	67.5	2.05022311115012	1.87829325359154	0.283333333333333	0	0	0	190.239479310578	190.339475141373	0.0999958307947963	0.283359677065164
40165.75	100	376	2	112	2	2	90	1	2	3	1	112.5	157.5	-2.59299848003203	0.881635095673358	0.2	0	0	0	190.539488745853	190.639473117655	0.0999843718018383	0.200013604480773
40253.25	100	377	2	113	2	2	90	1	2	0	2	157.5	22.5	0.683117743997406	0.928146361690188	0.25	0	0	0	190.889507190092	190.989490099018	0.0999829089269042	0.250034072436392
40319.75	100	378	2	114	2	2	90	1	2	0	2	67.5	112.5	2.60631072415509	-1.90773476672866	0.166666666666667	0	0	0	191.156176880002	191.25616393378	0.0999870537780225	0.166686780983582
40407.25	100	379	2	115	2	2	90	1	2	0	1	22.5	157.5	3.084417469516	-1.0649915954469	0.25	0	0	0	191.506187278545	191.606168237049	0.0999809585046023	0.250023344764486
40474	100	380	2	116	2	2	90	1	2	0	1	22.5	157.5	2.24006054761596	-3.12555657168884	0.166666666666667	0	0	0	191.772854042705	191.872838902054	0.0999848593492061	0.166685805656016
40561.5	100	381	2	117	2	2	90	1	2	0	2	157.5	112.5	-2.64566211887265	-0.863831515466433	0.25	0	0	0	192.122867366765	192.222849788144	0.0999824213795364	0.25002846471034
40624	100	382	2	118	2	2	90	1	2	0	1	112.5	67.5	-0.754295972631848	0.824464627133293	0.15	0	0	0	192.372866086895	192.47285606619	0.09998997929506	0.150016298750415
40711.5	100	383	2	119	2	2	90	1	2	0	2	67.5	112.5	2.887215775883	2.49877174296077	0.25	0	0	0	192.722885506228	192.82286158856	0.0999760823324323	0.250029440037906
40769.75	100	384	2	120	2	2	90	1	2	0	2	157.5	22.5	-0.212700358309715	-3.01856300462505	0.133333333333333	0	0	0	192.956228616415	193.056203723419	0.099975107004866	0.133367027854547
40828.25	100	385	2	121	2	2	90	1	2	0	1	22.5	67.5	-0.296783168000961	-0.881653276498936	0.133333333333333	0	0	0	193.189566362649	193.289541469654	0.099975107004866	0.133362639229745
40924	100	386	2	122	2	2	90	1	2	0	1	22.5	157.5	-1.22901333797422	1.55557866440795	0.283333333333333	0	0	0	193.572903340915	193.672892345116	0.0999890042003244	0.28336187126115
40986.5	100	387	2	123	2	2	90	1	2	0	1	22.5	67.5	1.60758714647709	-1.62327396343148	0.15	0	0	0	193.82291181339	193.92289789184	0.0999860784504563	0.150019468273968
41086.5	100	388	2	124	2	2	90	1	2	0	2	157.5	112.5	0.233730795004427	-1.57642809009174	0.3	0	0	0	194.22292927024	194.322909253417	0.099979983177036	0.300031378399581
41136.5	100	389	2	125	2	2	90	1	2	0	2	67.5	112.5	1.67002714311774	-1.01790402062585	0.1	0	0	0	194.422929465072	194.522913836874	0.0999843718018383	0.100020211655647
41194.75	100	390	2	126	2	2	90	1	2	0	1	112.5	67.5	-0.761775338152682	0.374642816574149	0.133333333333333	0	0	0	194.656269405736	194.756254996639	0.0999855909030885	0.133355568861589
41274	100	391	2	127	2	2	90	1	2	0	1	22.5	157.5	-1.17764089162863	0.59487387893393	0.216666666666667	0	0	0	194.9729454224	195.072926624678	0.0999812022782862	0.216690425761044
41344.75	100	392	2	128	2	2	90	1	2	0	2	157.5	112.5	-0.731638385355269	0.695264534422716	0.183333333333333	0	0	0	195.256284863222	195.356268991251	0.0999841280281544	0.183358238544315
41399	100	393	2	129	2	2	90	1	2	0	2	67.5	112.5	0.737460685057268	-1.47484143185888	0.116666666666667	0	0	0	195.472983334912	195.572935036151	0.0999517012387514	0.116714343661442
41449	100	394	2	130	2	2	90	1	2	0	2	157.5	112.5	-1.25231678428936	-0.403595745637154	0.1	0	0	0	195.672962074634	195.772946690209	0.0999846155755222	0.100027038482949
41503.25	100	395	2	131	2	2	90	1	2	0	1	112.5	157.5	2.38038768624139	0.313595799459787	0.116666666666667	0	0	0	195.889636896783	195.989620293258	0.099983396474272	0.116690206574276
41574	100	396	2	132	2	2	90	1	2	3	1	112.5	67.5	0.10832490562587	-1.18545008610202	0.183333333333333	0	0	0	196.173005107092	196.272957783658	0.0999526765663177	0.183384813833982
41632.25	100	397	2	133	2	2	90	1	2	3	2	67.5	22.5	-1.11617444308294	-0.97789746159437	0.133333333333333	0	0	0	196.406321398215	196.50630235672	0.0999809585046023	0.133363614557311
41711.5	100	398	2	134	2	2	90	1	2	3	2	157.5	22.5	2.34998928268665	-0.0315309888359359	0.216666666666667	0	0	0	196.722994245356	196.822977154283	0.0999829089269042	0.216691888635978
41765.75	100	399	2	135	2	2	90	1	2	3	1	22.5	157.5	-0.962726655523026	-2.86700733887314	0.116666666666667	0	0	0	196.939669555053	197.039648319362	0.0999787643086165	0.116692400770262
42803.25	100	400	3	0	2	2	0	2	1	3	1	22.5	157.5	-0.834490340111952	-2.42179817899859	0.3	0	0	0	201.089775819564	201.189762629336	0.099986809771508	-1
42861.5	100	401	3	1	2	2	0	2	1	3	1	112.5	67.5	1.6176595843747	-0.912783440903736	0.133333333333333	0	0	0	201.323137702886	201.423102813773	0.099965110886842	0.133375073550269
42915.75	100	402	3	2	2	2	0	2	1	3	1	22.5	67.5	-2.04612148902189	0.427604202821377	0.116666666666667	0	0	0	201.539787168847	201.639774466399	0.0999872975517064	0.11668435507454
43007.25	100	403	3	3	2	2	0	2	1	3	2	157.5	112.5	-0.462511053484171	2.32520754021043	0.266666666666667	0	0	0	201.906467074296	202.006449251901	0.0999821776058525	0.266692607896402
43099	100	404	3	4	2	2	0	2	1	0	1	22.5	67.5	-0.437362856983885	-2.4666119693853	0.266666666666667	0	0	0	202.273140640929	202.373123306083	0.0999826651532203	0.266691389027983
43165.75	100	405	3	5	2	2	0	2	1	0	1	22.5	67.5	-2.6233303693281	0.237783013723491	0.166666666666667	0	0	0	202.539814963238	202.639793971088	0.0999790078494698	0.166691657155752
43232.5	100	406	3	6	2	2	0	2	1	0	2	157.5	112.5	2.05386376945351	-1.60948255634474	0.166666666666667	0	0	0	202.806512447307	202.906476582866	0.0999641355592757	0.166718476219103
43324	100	407	3	7	2	2	0	2	1	0	1	22.5	157.5	1.57346439193135	-3.13198906874035	0.266666666666667	0	0	0	203.173175530042	203.273146248423	0.0999707183800638	0.266698947176337
43374	100	408	3	8	2	2	0	2	1	0	1	112.5	67.5	-2.14922238052436	-0.633653658271756	0.1	0	0	0	203.373184989905	203.473146931268	0.09996194136329	0.100038741482422
43445	100	409	3	9	2	2	0	2	1	0	2	67.5	112.5	0.368942802527913	1.6728870070078	0.183333333333333	0	0	0	203.656509558205	203.756499537732	0.0999899795278907	0.183362626936287
43515.75	100	410	3	10	2	2	0	2	1	0	2	67.5	22.5	1.53952038363445	-0.490329574009619	0.183333333333333	0	0	0	203.939855825622	204.039836296579	0.0999804709572345	0.183356287889183
43574	100	411	3	11	2	2	0	2	1	0	1	22.5	157.5	-0.806919685886071	0.0900089299016944	0.133333333333333	0	0	0	204.173193328083	204.273177212337	0.0999838842544705	0.133357031503692
43649	100	412	3	12	2	2	0	2	1	0	2	157.5	112.5	0.541798690592495	-1.78666840102132	0.2	0	0	0	204.473233239725	204.573210784933	0.0999775452073663	0.2000560273882
43715.75	100	413	3	13	2	2	0	2	1	0	1	22.5	157.5	-2.70353655994631	-0.417500670067543	0.166666666666667	0	0	0	204.739879280096	204.839859019499	0.0999797394033521	0.166668495163321
43811.5	100	414	3	14	2	2	0	2	1	0	2	67.5	22.5	-1.19350088806167	-2.87573161290526	0.283333333333333	0	0	0	205.123222353635	205.223204531241	0.0999821776058525	0.283363334136084
43899	100	415	3	15	2	2	0	2	1	0	2	157.5	112.5	-0.536822188981764	-0.343653127119581	0.25	1	0	0	205.473221780732	205.573216636432	0.0999948557000607	0.250017249491066
43974	100	416	3	16	2	2	0	2	1	0	1	112.5	157.5	-2.7875844981575	1.03196322959626	0.2	0	0	0	205.773233410437	205.873216319364	0.0999829089269042	0.200016774004325
44032.5	100	417	3	17	2	2	0	2	1	0	2	67.5	22.5	-1.45213002620822	-1.61501940569451	0.133333333333333	0	0	0	206.006575301522	206.106573814293	0.0999985127709806	0.133358982158825
44111.5	100	418	3	18	2	2	0	2	1	0	2	67.5	112.5	-2.52545320922626	-2.72481253471347	0.216666666666667	0	0	0	206.323250586865	206.423234227113	0.0999836402479559	0.2166767725721
44199	100	419	3	19	2	2	0	2	1	0	1	22.5	67.5	2.08810704634726	2.0474102668586	0.25	0	0	0	206.673278051894	206.773253890453	0.0999758385587484	0.250043824780732
44299	100	420	3	20	2	2	0	2	1	0	2	157.5	22.5	2.85434934644722	2.47377368529812	0.3	0	0	0	207.073277710704	207.173270615749	0.0999929050449282	0.300023820251226
44349	100	421	3	21	2	2	0	2	1	0	2	157.5	112.5	1.10385540521774	-1.51057254293749	0.1	0	0	0	207.273289608536	207.373271786142	0.0999821776058525	0.100018992787227
44436.5	100	422	3	22	2	2	0	2	1	0	2	67.5	22.5	1.46775406898311	-0.0787910482072038	0.25	0	0	0	207.623298056656	207.723281940678	0.0999838840216398	0.250026270514354
44520	100	423	3	23	2	2	0	2	1	0	1	22.5	67.5	1.21907374633693	-0.904516101917441	0.233333333333333	0	0	0	207.956637972733	208.056620637886	0.0999826651532203	0.233356032054871
44582.5	100	424	3	24	2	2	0	2	1	0	2	157.5	22.5	1.17031264113407	1.13310746247384	0.15	0	0	0	208.206640837481	208.306630085455	0.0999892479740083	0.150020199595019
44653.25	100	425	3	25	2	2	0	2	1	0	1	22.5	67.5	-0.0825999649646025	-2.63235506313351	0.183333333333333	0	0	0	208.489988811547	208.589970501605	0.0999816900584847	0.183358726091683
44711.5	100	426	3	26	2	2	0	2	1	0	2	157.5	112.5	-0.742636994804621	3.10053418488371	0.133333333333333	0	0	0	208.723326070234	208.823312392458	0.0999863222241402	0.133355568628758
44770	100	427	3	27	2	2	0	2	1	0	1	112.5	67.5	-3.05661756692175	2.93754746340391	0.133333333333333	0	0	0	208.956664060475	209.056652089348	0.0999880288727582	0.133351668016985
44857.5	100	428	3	28	2	2	0	2	1	0	2	67.5	112.5	0.626835461882777	-1.282183175395	0.25	0	0	0	209.306683236035	209.406662243884	0.0999790078494698	0.250031146686524
44936.5	100	429	3	29	2	2	0	2	1	0	1	22.5	67.5	-1.29737906286517	1.62329126036678	0.216666666666667	0	0	0	209.623354132753	209.723330458859	0.0999763261061162	0.216691888868809
45015.75	100	430	3	30	2	2	0	2	1	0	1	112.5	67.5	-0.918677497773791	-1.47025508169625	0.216666666666667	0	0	0	209.940050629433	210.040012083249	0.0999614538159221	0.216720170574263
45082.5	100	431	3	31	2	2	0	2	1	0	2	67.5	112.5	2.19394098646007	0.7847980136378	0.166666666666667	0	0	0	210.206700083334	210.306686893106	0.099986809771508	0.166688000084832
45182.5	100	432	3	32	2	2	0	2	1	0	2	157.5	112.5	-2.00122598500969	1.57868411121845	0.3	0	0	0	210.606717539951	210.70669337851	0.0999758385587484	0.300030646845698
45278.25	100	433	3	33	2	2	0	2	1	0	2	67.5	112.5	-1.78585505707569	2.76361279715151	0.283333333333333	0	0	0	210.990053543122	211.090071073035	0.100017529912293	0.283360164612532
45332.5	100	434	3	34	2	2	0	2	1	0	1	22.5	157.5	-0.640224559231072	0.338726696400391	0.116666666666667	0	0	0	211.206731047016	211.306709323544	0.0999782765284181	0.116659973980859
45403.25	100	435	3	35	2	2	0	2	1	3	2	67.5	112.5	2.03405212178881	-1.9202757596266	0.183333333333333	0	0	0	211.490067805862	211.590065831086	0.0999980252236128	0.183358482317999
45503.25	100	436	3	36	2	2	0	2	1	3	1	112.5	157.5	0.195022313729043	2.29751850738126	0.3	0	0	0	211.890081117861	211.990060125943	0.0999790080823004	0.300015286775306
45590.75	100	437	3	37	2	2	0	2	1	3	1	22.5	67.5	-1.6829702780175	-2.30281215422575	0.25	0	0	0	212.240095661255	212.34007442533	0.0999787640757859	0.250035535311326
45645	100	438	3	38	2	2	0	2	1	2	-1	45	0	-1.90619015130858	-0.778842444133249	0.116666666666667	0	0	0	212.456765363226	212.556747784605	0.0999824213795364	0.116690937895328
45736.5	100	439	3	39	2	2	0	2	1	3	1	112.5	67.5	-1.48911847958446	-0.159480208999989	0.266666666666667	0	0	0	212.823448194424	212.923420863459	0.0999726690351963	0.266700409818441
45795	100	440	3	40	2	2	0	2	1	3	2	157.5	22.5	1.19286638315437	-1.4327838189413	0.133333333333333	0	0	0	213.056777894963	213.156759585021	0.0999816900584847	0.133357031503692
45845	100	441	3	41	2	2	0	2	1	3	1	22.5	157.5	-2.92650783312026	-1.43368360638867	0.1	0	0	0	213.25678589195	213.356770507758	0.0999846158083528	0.100026306929067
45940.75	100	442	3	42	2	2	0	2	1	3	2	67.5	22.5	-0.627616951540608	-1.56065642535793	0.283333333333333	0	0	0	213.640128234169	213.740108704893	0.0999804707244039	0.283357726410031
46024	100	443	3	43	2	2	0	2	1	0	2	67.5	112.5	2.22118379987868	-2.84649992530551	0.233333333333333	0	0	0	213.973464005627	214.073451546952	0.0999875413253903	0.23335530073382
46107.5	100	444	3	44	2	2	0	2	1	0	1	112.5	157.5	-0.690019824862193	1.49189576359051	0.233333333333333	0	0	0	214.306812455179	214.406795364106	0.0999829089269042	0.233360908227041
46170	100	445	3	45	2	2	0	2	1	0	1	22.5	157.5	-0.69547988563273	-2.65790320122606	0.15	0	0	0	214.556822877843	214.656803836348	0.0999809585046023	0.150027513736859
46245	100	446	3	46	2	2	0	2	1	0	2	67.5	112.5	1.25601344771051	0.49036825621167	0.2	0	0	0	214.856831338257	214.956808395684	0.0999770574271679	0.200027501909062
46332.5	100	447	3	47	2	2	0	2	1	0	2	157.5	22.5	0.309581455147866	3.0845968077389	0.25	0	0	0	215.206837347941	215.306819525547	0.0999821776058525	0.250028952257708
46428.25	100	448	3	48	2	2	0	2	1	0	2	157.5	22.5	2.11962058160253	-2.28030431737009	0.283333333333333	0	0	0	215.590178958606	215.690160404891	0.0999814462848008	0.283359433058649
46478.25	100	449	3	49	2	2	0	2	1	0	2	67.5	22.5	-3.14036112518323	3.12257353560882	0.1	0	0	0	215.790183054749	215.890165963676	0.0999829089269042	0.100022649858147
46561.75	100	450	3	50	2	2	0	2	1	0	1	22.5	157.5	2.56311337682217	2.01605453349427	0.233333333333333	0	0	0	216.123532723403	216.223508561729	0.0999758383259177	0.233366759726778
46636.75	100	451	3	51	2	2	0	2	1	0	2	67.5	22.5	1.60485267263795	-0.460573123567938	0.2	0	0	0	216.42353508831	216.523519703886	0.0999846155755222	0.200026526581496
46690.75	100	452	3	52	2	2	0	2	1	0	2	67.5	112.5	1.60055074581387	-0.440571138798148	0.116666666666667	0	0	0	216.64019528171	216.740176971769	0.0999816900584847	0.116675577824935
46749.25	100	453	3	53	2	2	0	2	1	0	1	22.5	67.5	1.69530921828433	-2.00884488551888	0.133333333333333	0	0	0	216.873533515725	216.973518862622	0.0999853468965739	0.133356543956324
46799.25	100	454	3	54	2	2	0	2	1	0	1	22.5	67.5	-2.40967416121477	-0.419303363118978	0.1	0	0	0	217.073543219361	217.173525640741	0.0999824213795364	0.100024356739596
46895	100	455	3	55	2	2	0	2	1	0	1	112.5	67.5	-0.463349240547054	-2.66484825480013	0.283333333333333	0	0	0	217.456883854698	217.556883342797	0.0999994880985469	0.283358213957399
46986.75	100	456	3	56	2	2	0	2	1	0	2	67.5	22.5	-0.132775525275657	-1.00741237139416	0.266666666666667	0	0	0	217.823566198349	217.923547156854	0.0999809585046023	0.266682855552062
47070	100	457	3	57	2	2	0	2	1	0	2	157.5	112.5	0.471902746212086	-0.238308431785993	0.233333333333333	0	0	0	218.156909040175	218.256890974008	0.0999819338321686	0.233361883321777
47149.25	100	458	3	58	2	2	0	2	1	0	1	112.5	157.5	-2.0513054499057	1.04566211473948	0.216666666666667	0	0	0	218.473572622752	218.573566746898	0.0999941241461784	0.21668164874427
47245	100	459	3	59	2	2	0	2	1	0	1	22.5	67.5	2.83654213901785	-2.06454971167963	0.283333333333333	0	0	0	218.856926667737	218.95690933289	0.0999826651532203	0.283359920838848
47328.25	100	460	3	60	2	2	0	2	1	3	1	112.5	157.5	-1.62509916599154	-0.171644275525841	0.233333333333333	0	0	0	219.190268046688	219.29025290627	0.0999848595820367	0.233358713798225
47390.75	100	461	3	61	2	2	0	2	1	3	2	157.5	22.5	-0.356822313194498	1.08538111994849	0.15	0	0	0	219.440276275389	219.540258696536	0.0999824211467057	0.150023369118571
47470	100	462	3	62	2	2	0	2	1	3	2	157.5	112.5	2.08588440176632	0.606124196765114	0.216666666666667	0	0	0	219.756949610077	219.856929593487	0.0999799834098667	0.216690913541242
47540.75	100	463	3	63	2	2	0	2	1	1	-1	0	135	1.95660545273825	-0.915213499446418	0.183333333333333	0	0	0	220.040290270001	220.140273178928	0.0999829089269042	0.183360676513985
47628.25	100	464	3	64	2	2	0	2	1	3	2	67.5	112.5	1.08814706520761	-0.662702621831043	0.25	0	0	0	220.390303106513	220.490282114595	0.0999790080823004	0.250029927585274
47724.25	100	465	3	65	2	2	0	2	1	3	1	112.5	67.5	-0.143019396438523	-2.30874924107054	0.283333333333333	0	0	0	220.773640816333	220.873625188135	0.0999843718018383	0.283358701737598
47774.25	100	466	3	66	2	2	0	2	1	3	1	22.5	67.5	-2.95034382863794	0.452556433288128	0.1	0	0	0	220.973652957939	221.073638305068	0.0999853471294045	0.100027769804001
47840.75	100	467	3	67	2	2	0	2	1	3	2	67.5	22.5	-2.97839654554898	2.85956026893348	0.166666666666667	0	0	0	221.240327524021	221.340311895823	0.0999843718018383	0.166689218953252
47899.25	100	468	3	68	2	2	0	2	1	0	2	67.5	112.5	0.109074998581995	2.09310207342101	0.133333333333333	0	0	0	221.473667952232	221.573651836487	0.0999838842544705	0.133356056408957
47995	100	469	3	69	2	2	0	2	1	0	1	22.5	157.5	-0.597226588505964	2.70162317355766	0.283333333333333	0	0	0	221.857016145717	221.956998567097	0.0999824213795364	0.283364309230819
48053.25	100	470	3	70	2	2	0	2	1	0	1	112.5	157.5	-3.11865553062555	1.9204090679973	0.133333333333333	0	0	0	222.09035535506	222.190329730511	0.0999743754509836	0.133356787962839
48145	100	471	3	71	2	2	0	2	1	0	2	157.5	22.5	-1.0823417966804	0.550242487575556	0.266666666666667	0	0	0	222.457051108126	222.557017194107	0.0999660859815776	0.266721377614886
48224.25	100	472	3	72	2	2	0	2	1	0	2	157.5	22.5	2.80790644929964	1.91035870178131	0.216666666666667	0	0	0	222.773702500155	222.873690041481	0.0999875413253903	0.216685306048021
48299.25	100	473	3	73	2	2	0	2	1	0	1	112.5	67.5	-2.95270246506237	-0.0916340376698828	0.2	0	0	0	223.073713642312	223.173692650162	0.0999790078494698	0.200023600831628
48399.25	100	474	3	74	2	2	0	2	1	0	2	67.5	22.5	3.11881179893337	-1.82334570430339	0.3	0	0	0	223.473717933288	223.573700110894	0.0999821776058525	0.300025283126161
48490.75	100	475	3	75	2	2	0	2	1	0	1	112.5	67.5	-2.43847665957407	-2.87839471969009	0.266666666666667	0	0	0	223.840397594962	223.940377821913	0.09998022695072	0.266697484068573
48565.75	100	476	3	76	2	2	0	2	1	0	2	157.5	22.5	-3.02837905355424	0.59743699623564	0.2	0	0	0	224.140409956221	224.240387501195	0.0999775449745357	0.200032134307548
48615.75	100	477	3	77	2	2	0	2	1	0	1	22.5	157.5	1.37057111133583	1.63777759519297	0.1	0	0	0	224.340416002553	224.440391841112	0.0999758385587484	0.100028501357883
48682.5	100	478	3	78	2	2	0	2	1	0	1	112.5	67.5	-1.40256180909321	-1.45705521064114	0.166666666666667	0	0	0	224.607091300189	224.707069332944	0.0999780327547342	0.16669945907779
48757.5	100	479	3	79	2	2	0	2	1	0	1	22.5	67.5	-2.92481286523234	2.59654858014649	0.2	0	0	0	224.907093908871	225.007077061571	0.0999831527005881	0.200024575926363
48849.25	100	480	3	80	2	2	0	2	1	0	2	67.5	112.5	-2.56281637946017	0.827657629355063	0.266666666666667	0	0	0	225.2737696697	225.373756479472	0.099986809771508	0.266692608129233
48911.75	100	481	3	81	2	2	0	2	1	0	1	112.5	157.5	1.42502404922463	0.951153215232421	0.15	0	0	0	225.523792282911	225.623764708173	0.0999724252615124	0.150035803439096
49003.25	100	482	3	82	2	2	0	2	1	0	1	112.5	157.5	2.40562712085666	-2.3125196795607	0.266666666666667	0	0	0	225.890455853194	225.9904321793	0.0999763261061162	0.266691145021468
49057.5	100	483	3	83	2	2	0	2	1	0	2	67.5	22.5	1.9431832221477	1.79080560644708	0.116666666666667	0	0	0	226.10713335732	226.207107245224	0.0999738879036158	0.116701178019866
49140.75	100	484	3	84	2	2	0	2	1	0	2	157.5	22.5	2.71704159469047	-1.73241087708028	0.233333333333333	0	0	0	226.440467178356	226.540451062378	0.0999838840216398	0.233359933132306
49240.75	100	485	3	85	2	2	0	2	1	0	1	112.5	67.5	1.67970221051959	-0.853549007607171	0.3	0	0	0	226.840483172098	226.940461936407	0.0999787643086165	0.300032109720632
49303.25	100	486	3	86	2	2	0	2	1	0	2	157.5	112.5	-0.368132709422877	-2.76058870684304	0.15	0	0	0	227.090490913019	227.190466751577	0.0999758385587484	0.150028976611793
49365.75	100	487	3	87	2	2	0	2	1	0	1	22.5	67.5	0.793740829012619	0.347296023462956	0.15	0	0	0	227.340500848368	227.440480831545	0.099979983177036	0.150034096790478
49465.75	100	488	3	88	2	2	0	2	1	0	2	67.5	112.5	1.00277350084269	-2.83998363908975	0.3	0	0	0	227.740510259522	227.840485122753	0.0999748632311821	0.300029427977279
49557.5	100	489	3	89	2	2	0	2	1	0	2	157.5	112.5	0.251319674162058	-1.57949080908622	0.266666666666667	0	0	0	228.107174561126	228.207185264444	0.100010703317821	0.26668943837285
49628.25	100	490	3	90	2	2	0	2	1	0	1	112.5	67.5	-0.226942005036651	-2.43149002295612	0.183333333333333	0	0	0	228.390528386692	228.490501543274	0.0999731565825641	0.183343122247607
49728.25	100	491	3	91	2	2	0	2	1	0	1	22.5	157.5	-2.78589558854531	-0.13396089302438	0.3	0	0	0	228.790551451035	228.890510710422	0.0999592593871057	0.300049907760695
49828.25	100	492	3	92	2	2	0	2	1	0	1	22.5	67.5	-2.51696138957217	-2.2644253070877	0.3	0	0	0	229.190538919298	229.290524022421	0.09998510312289	0.300028208876029
49886.75	100	493	3	93	2	2	0	2	1	0	2	157.5	22.5	0.23307139924223	-1.09615008203725	0.133333333333333	0	0	0	229.423894707346	229.523867132608	0.0999724252615124	0.133370684925467
49957.5	100	494	3	94	2	2	0	2	1	0	2	157.5	112.5	-3.10852342412584	-0.860610993484753	0.183333333333333	0	0	0	229.707233904395	229.8072148629	0.0999809585046023	0.183366771787405
50020	100	495	3	95	2	2	0	2	1	0	1	112.5	67.5	-1.73637471992964	0.792864892263054	0.15	0	0	0	229.957237500465	230.05722504179	0.0999875413253903	0.150022637564689
50070	100	496	3	96	2	2	0	2	1	0	2	67.5	112.5	1.33973125143618	-1.79997001653456	0.1	0	0	0	230.157244522357	230.257228406379	0.0999838840216398	0.100019480567425
50166	100	497	3	97	2	2	0	2	1	0	1	112.5	157.5	-2.2415848087761	-0.59216300821154	0.283333333333333	0	0	0	230.540578087326	230.640559045598	0.0999809582717717	0.28334968094714
50236.75	100	498	3	98	2	2	0	2	1	0	2	157.5	22.5	0.911777744628548	-0.566132953466812	0.183333333333333	0	0	0	230.823922404088	230.923898486421	0.0999760823324323	0.183363358490169
50307.5	100	499	3	99	2	2	0	2	1	0	1	112.5	157.5	-1.24803502983138	-0.445796205363938	0.183333333333333	0	0	0	231.107260382036	231.207239877665	0.0999794956296682	0.183361895615235
50374.25	100	500	3	100	2	2	0	2	1	0	2	157.5	22.5	2.35010584655639	2.50083835569218	0.166666666666667	0	0	0	231.373924708227	231.473907860927	0.0999831527005881	0.16668483056128
50453.5	100	501	3	101	2	2	0	2	1	0	2	67.5	22.5	0.689151211650181	1.22534990987303	0.216666666666667	0	0	0	231.69060950214	231.790592167294	0.0999826651532203	0.216701641213149
50507.5	100	502	3	102	2	2	0	2	1	0	1	22.5	67.5	-1.56630583504431	-0.538692441465765	0.116666666666667	0	0	0	231.907279204112	232.007262844592	0.0999836404807866	0.116687036817893
50586.75	100	503	3	103	2	2	0	2	1	0	2	157.5	112.5	0.0519090191358331	-0.129773596293329	0.216666666666667	0	0	0	232.223952782806	232.323931059334	0.0999782765284181	0.216689938213676
50653.5	100	504	3	104	2	2	0	2	1	0	1	112.5	157.5	-0.987072880230554	0.833976807609916	0.166666666666667	0	0	0	232.49062856799	232.590612696018	0.0999841280281544	0.166697508655488
50707.5	100	505	3	105	2	2	0	2	1	0	2	157.5	22.5	1.94489532075733	-2.2011166656952	0.116666666666667	0	0	0	232.707301683491	232.807282154215	0.0999804707244039	0.116688987473026
50791	100	506	3	106	2	2	0	2	1	0	2	67.5	22.5	1.3464095112857	-2.92867475386025	0.233333333333333	0	0	0	233.040675245458	233.140621095197	0.0999458497390151	0.23339309124276
50891	100	507	3	107	2	2	0	2	1	0	1	112.5	157.5	-2.01294008852446	2.23514798060346	0.3	0	0	0	233.440656862222	233.540636113845	0.0999792516231537	0.300035767024383
50978.5	100	508	3	108	2	2	0	2	1	0	1	112.5	67.5	1.45966308003547	-0.647483173466104	0.25	0	0	0	233.790667504305	233.890646756161	0.0999792518559843	0.250031390460208
51053.5	100	509	3	109	2	2	0	2	1	0	1	22.5	157.5	1.19930978901458	0.159419704196498	0.2	0	0	0	234.090674501844	234.190656191669	0.099981689825654	0.200027745682746
51107.5	100	510	3	110	2	2	0	2	1	0	1	112.5	157.5	2.20719570185076	-2.59429676489787	0.116666666666667	0	0	0	234.307348348666	234.407327112742	0.0999787640757859	0.116692156996578
51157.5	100	511	3	111	2	2	0	2	1	0	2	157.5	22.5	-0.542191240566879	-2.46777035872898	0.1	0	0	0	234.507352932123	234.607341205003	0.0999882728792727	0.100025819381699
51216	100	512	3	112	2	2	0	2	1	3	2	67.5	112.5	3.12827559219194	-1.93648779568704	0.133333333333333	0	0	0	234.740688971942	234.840681876987	0.0999929050449282	0.133347766939551
51299.25	100	513	3	113	2	2	0	2	1	3	1	22.5	157.5	-0.674541822932652	0.891446663806425	0.233333333333333	0	0	0	235.074040591018	235.174015941797	0.0999753507785499	0.233358714031056
51395	100	514	3	114	2	2	0	2	1	3	1	112.5	67.5	0.823016752431327	1.29664918931738	0.283333333333333	0	0	0	235.457379519707	235.557392173447	0.100012653740123	0.283363577909768
51449.25	100	515	3	115	2	2	0	2	1	1	-1	0	135	-1.36188850653855	0.554742424390395	0.116666666666667	0	0	0	235.674055073177	235.774032618385	0.0999775452073663	0.116662899730727
51516	100	516	3	116	2	2	0	2	1	3	2	67.5	22.5	0.595207401624033	-0.472179660128641	0.166666666666667	0	0	0	235.94075085083	236.040738879703	0.0999880288727582	0.166718232445419
51595	100	517	3	117	2	2	0	2	1	3	1	112.5	157.5	2.91692132742927	-0.0825876510976595	0.216666666666667	1	0.47550140041858	1	236.257409069454	236.357388565084	0.0999794956296682	0.216670189751312
51670	100	518	3	118	2	2	0	2	1	3	2	157.5	22.5	-1.50118686100204	1.52378754024115	0.2	0	0	0	236.55741606676	236.657394830836	0.0999787640757859	0.200027501676232
51720	100	519	3	119	2	2	0	2	1	3	1	22.5	67.5	0.378257492804476	-0.557943874363819	0.1	0	0	0	236.757416749373	236.857403803151	0.0999870537780225	0.100021918537095
51803.5	100	520	3	120	2	2	0	2	1	0	1	112.5	67.5	0.919472031116999	-2.00304098251314	0.233333333333333	0	0	0	237.090759835206	237.190737623954	0.0999777887482196	0.233356032054871
51870	100	521	3	121	2	2	0	2	1	0	2	67.5	22.5	2.70918975380359	2.91401623330343	0.166666666666667	0	0	0	237.357433182187	237.457431938732	0.0999987565446645	0.166695558233187
51949.25	100	522	3	122	2	2	0	2	1	0	1	22.5	157.5	0.997206325097204	0.788604374792426	0.216666666666667	0	0	0	237.674101640936	237.774117463967	0.100015823030844	0.216669702203944
52003.5	100	523	3	123	2	2	0	2	1	0	1	112.5	67.5	-2.58054073036457	-0.610998097524883	0.116666666666667	0	0	0	237.890804988565	237.990750838537	0.0999458499718457	0.116687524598092
52091	100	524	3	124	2	2	0	2	1	0	1	22.5	157.5	-2.21024847886708	-1.87558176681893	0.25	0	0	0	238.240783204325	238.3407678199	0.0999846155755222	0.250032365787774
52153.5	100	525	3	125	2	2	0	2	1	0	2	67.5	22.5	-3.08968035623115	2.97113964174679	0.15	0	0	0	238.49079240812	238.590772878844	0.0999804707244039	0.150024588219821
52224.25	100	526	3	126	2	2	0	2	1	0	1	22.5	157.5	-0.705905661129383	-2.49155633807836	0.183333333333333	0	0	0	238.774161837529	238.87410890637	0.0999470688402653	0.1833889586851
52274.25	100	527	3	127	2	2	0	2	1	0	1	112.5	157.5	1.20117532600408	-0.992770368120477	0.1	0	0	0	238.974133262876	239.074114221381	0.0999809585046023	0.100024356506765
52328.5	100	528	3	128	2	2	0	2	1	0	2	157.5	112.5	-1.09549464439238	0.535576174822584	0.116666666666667	0	0	0	239.190806134604	239.290795870125	0.0999897355213761	0.116691913222894
52416	100	529	3	129	2	2	0	2	1	0	1	112.5	157.5	0.106753630306145	-1.8366750635096	0.25	0	0	0	239.540817508241	239.640802367823	0.0999848595820367	0.250021638115868
52478.5	100	530	3	130	2	2	0	2	1	0	2	67.5	112.5	-0.923420497119172	1.67957018666036	0.15	0	0	0	239.790832319763	239.89080401347	0.09997169370763	0.150029951939359
52574.25	100	531	3	131	2	2	0	2	1	0	2	157.5	112.5	2.04900598936209	-2.2763017077682	0.283333333333333	0	0	0	240.174170273356	240.274153182283	0.0999829089269042	0.283366259885952
52624.25	100	532	3	132	2	2	0	2	1	3	2	157.5	22.5	-0.629803417953505	-0.462860063645873	0.1	0	0	0	240.374174369266	240.474156059092	0.099981689825654	0.100021186983213
52703.5	100	533	3	133	2	2	0	2	1	3	1	112.5	157.5	-0.514060428967363	0.224724511196114	0.216666666666667	0	0	0	240.690851605032	240.79083573306	0.0999841280281544	0.216695545939729
52791	100	534	3	134	2	2	0	2	1	3	2	67.5	112.5	-0.758425397310624	-0.756884653368818	0.25	0	0	0	241.040863222675	241.140839304775	0.0999760820996016	0.250027489615604
52874.25	100	535	3	135	2	2	0	2	1	3	2	67.5	22.5	-1.3940935398645	0.521966652473079	0.233333333333333	0	0	0	241.374195824377	241.474180196179	0.0999843718018383	0.233356519602239
53707.75	100	536	4	0	1	2	90	1	1	3	1	22.5	67.5	-1.05826631235851	1.86592195879308	0.2	0	0	0	244.707657645456	244.807635434438	0.0999777889810503	-1
53782.75	100	537	4	1	1	2	90	1	1	3	1	112.5	157.5	2.7121303936227	1.99371559548719	0.2	0	0	0	245.00765391509	245.107617075555	0.0999631604645401	0.200018480652943
53857.75	100	538	4	2	1	2	90	1	1	3	2	157.5	22.5	-1.26349316948354	2.69560140229209	0.2	0	0	0	245.307639213512	245.407623585314	0.0999843718018383	0.200022137956694
53932.75	100	539	4	3	1	2	90	1	1	3	1	112.5	67.5	-1.61963358886781	-0.654931011065544	0.2	0	0	0	245.607649624115	245.707635458792	0.0999858346767724	0.200026038801298
54007.75	100	540	4	4	1	2	90	1	1	0	2	67.5	22.5	2.74081705173391	0.830425326607355	0.2	0	0	0	245.907661741599	246.007636848604	0.099975107004866	0.200026282807812
54082.75	100	541	4	5	1	2	90	1	1	0	1	22.5	157.5	1.94393479279816	2.92504899903121	0.2	0	0	0	246.207681417	246.307662375504	0.0999809585046023	0.200044568395242
54157.75	100	542	4	6	1	2	90	1	1	0	2	157.5	112.5	1.16109682385178	-0.741730313021356	0.2	0	0	0	246.507675736211	246.607653525192	0.0999777889810503	0.200013360707089
54232.75	100	543	4	7	1	2	90	1	1	0	2	157.5	112.5	2.68191863964434	-1.15589034463217	0.2	0	0	0	246.807680783095	246.907661010046	0.09998022695072	0.200027257902548
54307.75	100	544	4	8	1	2	90	1	1	0	1	22.5	157.5	-2.01887730578248	-1.17223066158028	0.2	0	0	0	247.1076936319	247.207674102625	0.0999804707244039	0.200032621854916
54382.75	100	545	4	9	1	2	90	1	1	0	1	112.5	157.5	-0.690652535802665	0.416414849392586	0.2	0	0	0	247.407713307301	247.507711820072	0.0999985127709806	0.200039204675704
54457.75	100	546	4	10	1	2	90	1	1	0	2	67.5	112.5	1.26788691626065	-0.101231084467651	0.2	0	0	0	247.70770567609	247.807686390588	0.0999807144980878	0.199993856018409
54532.75	100	547	4	11	1	2	90	1	1	0	2	157.5	112.5	-2.86192336030426	0.48669371500101	0.2	0	0	0	248.007715599146	248.107696557418	0.0999809582717717	0.20002920855768
54607.75	100	548	4	12	1	2	90	1	1	0	1	112.5	67.5	1.80016784708345	-1.50356179900136	0.2	0	0	0	248.307723083999	248.407708674902	0.0999855909030885	0.200026526581496
54682.75	100	549	4	13	1	2	90	1	1	0	1	112.5	157.5	1.33095830769467	2.94995812787376	0.2	0	0	0	248.607728862204	248.707742735045	0.100013872841373	0.200020187301561
54757.75	100	550	4	14	1	2	90	1	1	0	1	112.5	67.5	0.444937234949113	-0.421717739907202	0.2	0	0	0	248.907738541486	249.007723888615	0.0999853471294045	0.199995806440711
54832.75	100	551	4	15	1	2	90	1	1	0	1	22.5	157.5	2.28631940209101	-1.15271895772854	0.2	0	0	0	249.207752365619	249.307731129695	0.0999787640757859	0.200028477003798
54907.75	100	552	4	16	1	2	90	1	1	0	1	22.5	67.5	-3.08651561773349	0.042673341489424	0.2	0	0	0	249.507753998972	249.607740077423	0.0999860784504563	0.200022869277745
54982.75	100	553	4	17	1	2	90	1	1	0	1	112.5	157.5	1.93586843110066	-0.699311959669315	0.2	0	0	0	249.807761484059	249.907746343408	0.0999848593492061	0.200021406635642
55057.75	100	554	4	18	1	2	90	1	1	0	2	157.5	112.5	-0.122424089985894	2.60231339434974	0.2	0	0	0	250.107774332864	250.207760167541	0.0999858346767724	0.20002798945643
55132.75	100	555	4	19	1	2	90	1	1	0	1	112.5	67.5	1.65566471918065	-1.25937530913051	0.2	0	0	0	250.407780354843	250.507767164847	0.0999868100043386	0.200020187301561
55207.75	100	556	4	20	1	2	90	1	1	0	1	112.5	157.5	-2.18905536587574	0.639737644741763	0.2	0	0	0	250.707796373172	250.807772943052	0.0999765698798001	0.20002920832485
55282.75	100	557	4	21	1	2	90	1	1	0	2	157.5	112.5	2.80271413518301	-1.12285718542451	0.2	0	0	0	251.007800200954	251.107780915685	0.0999807147309184	0.200027257902548
55357.75	100	558	4	22	1	2	90	1	1	0	2	67.5	22.5	3.09500213931422	2.29696810965333	0.2	0	0	0	251.307802565861	251.407784987241	0.0999824213795364	0.200021650176495
55432.75	100	559	4	23	1	2	90	1	1	0	1	22.5	157.5	2.45565251453237	2.55789343776119	0.2	0	0	0	251.607846378582	251.707829775056	0.099983396474272	0.200061391340569
55507.75	100	560	4	24	1	2	90	1	1	0	2	157.5	112.5	1.37518286606671	-2.13992098814236	0.2	0	0	0	251.907830701442	252.007817267673	0.0999865662306547	0.200000926386565
55582.75	100	561	4	25	1	2	90	1	1	0	2	157.5	22.5	2.66952330529985	0.563537760026124	0.2	0	0	0	252.207846475998	252.307824508753	0.0999780327547342	0.20002920832485
55657.75	100	562	4	26	1	2	90	1	1	0	2	157.5	112.5	-1.49746420458706	0.524763867696242	0.2	0	0	0	252.507853473304	252.607829555636	0.0999760823324323	0.200028964551166
55732.75	100	563	4	27	1	2	90	1	1	0	2	67.5	22.5	1.29464256952694	1.24212513309413	0.2	0	0	0	252.807854863117	252.907836552942	0.099981689825654	0.200025307480246
55807.75	100	564	4	28	1	2	90	1	1	0	2	157.5	112.5	0.829207823800857	-0.542376417515942	0.2	0	0	0	253.107865029946	253.2078489142	0.0999838842544705	0.200028477003798
55882.75	100	565	4	29	1	2	90	1	1	0	2	67.5	112.5	-0.988125404976986	2.11832779653379	0.2	0	0	0	253.407870808151	253.507852010429	0.0999812022782862	0.200021893950179
55957.75	100	566	4	30	1	2	90	1	1	0	1	22.5	67.5	-1.27784970245567	-0.750150554764677	0.2	0	0	0	253.707866834244	253.807848280296	0.0999814460519701	0.200014823814854
56032.75	100	567	4	31	1	2	90	1	1	0	1	112.5	157.5	1.33937308964754	-2.64774851344006	0.2	0	0	0	254.007909671403	254.107858934673	0.0999492632690817	0.200061391107738
56107.75	100	568	4	32	1	2	90	1	1	0	1	112.5	157.5	-3.09199947687534	2.49650937705308	0.2	0	0	0	254.307888630778	254.407871052157	0.0999824213795364	0.200029696105048
56182.75	100	569	4	33	1	2	90	1	1	0	2	157.5	22.5	-1.70829264733587	-0.538325537555317	0.2	0	0	0	254.607894165209	254.707874148386	0.099979983177036	0.200023113051429
56257.75	100	570	4	34	1	2	90	1	1	0	1	22.5	67.5	-0.121025351582066	-1.46191323399578	0.2	0	0	0	254.907916522585	255.00788626587	0.0999697432853281	0.200042374199256
56332.75	100	571	4	35	1	2	90	1	1	0	1	112.5	157.5	2.04991684041869	1.5195964212598	0.2	0	0	0	255.207914742641	255.307892044075	0.0999773014336824	0.200028476770967
56407.75	100	572	4	36	1	2	90	1	1	0	1	22.5	157.5	2.67865744832253	2.30612032845011	0.2	0	0	0	255.50791832665	255.607897822279	0.0999794956296682	0.200026282574981
56482.75	100	573	4	37	1	2	90	1	1	0	1	112.5	67.5	1.0960368662624	2.70741636301705	0.2	0	0	0	255.807925811736	255.907912377734	0.0999865659978241	0.20002798945643
56557.75	100	574	4	38	1	2	90	1	1	0	1	22.5	157.5	-2.71943043703306	-2.2436540386268	0.2	0	0	0	256.107936709886	256.207916205516	0.0999794956296682	0.20002433215268
56632.75	100	575	4	39	1	2	90	1	1	0	1	22.5	157.5	2.48067974506226	-1.67252668176187	0.2	0	0	0	256.407949558692	256.507930273423	0.0999807147309184	0.200033353175968
56707.75	100	576	4	40	1	2	90	1	1	0	2	67.5	112.5	-3.07560103908868	-2.18504271973463	0.2	0	0	0	256.707952167606	256.807934101205	0.0999819335993379	0.20002189418301
56782.75	100	577	4	41	1	2	90	1	1	0	1	112.5	67.5	1.59140874012136	-1.18128164004271	0.2	0	0	0	257.007957702037	257.107942073839	0.0999843718018383	0.200023600831628
56857.75	100	578	4	42	1	2	90	1	1	0	1	22.5	67.5	-1.0316442992292	-2.35908200019487	0.2	0	0	0	257.30796518689	257.407949558692	0.0999843718018383	0.200023113051429
56932.75	100	579	4	43	1	2	90	1	1	0	2	67.5	112.5	-1.77433331027803	-0.298029186358214	0.2	0	0	0	257.607974378625	257.707957043778	0.0999826651532203	0.200024819932878
57007.75	100	580	4	44	1	2	90	1	1	0	1	112.5	157.5	0.780782841251704	1.33291124786658	0.2	0	0	0	257.907983570127	258.007976719178	0.0999931490514427	0.200026526348665
57082.75	100	581	4	45	1	2	90	1	1	0	2	157.5	22.5	2.03644466595773	-2.60055167424183	0.2	0	0	0	258.207995443605	258.307975914562	0.0999804709572345	0.200018724426627
57157.75	100	582	4	46	1	2	90	1	1	0	2	67.5	22.5	1.9377583591196	0.370891950992171	0.2	0	0	0	258.508026090683	258.607995102415	0.0999690117314458	0.200050176121294
57232.75	100	583	4	47	1	2	90	1	1	0	1	112.5	157.5	-2.1779977644156	-0.175895113707134	0.2	0	0	0	258.808009194676	258.90799502912	0.0999858344439417	0.200014092260972
57307.75	100	584	4	48	1	2	90	1	1	0	2	157.5	22.5	-0.32432431634474	-1.53676553205221	0.2	0	0	0	259.10801741085	259.208005439956	0.0999880291055888	0.200022381730378
57382.75	100	585	4	49	1	2	90	1	1	0	2	157.5	22.5	2.25576561377126	-1.91394873713344	0.2	0	0	0	259.408024895936	259.508006585762	0.099981689825654	0.20001945598051
57457.75	100	586	4	50	1	2	90	1	1	0	2	67.5	112.5	1.84509460995297	2.0413002604254	0.2	0	0	0	259.70803286857	259.808012607973	0.0999797394033521	0.200026282807812
57532.75	100	587	4	51	1	2	90	1	1	0	2	67.5	22.5	0.0422785246453441	0.867703706529237	0.2	0	0	0	260.008037915453	260.108018873725	0.0999809582717717	0.200025307480246
57607.75	100	588	4	52	1	2	90	1	1	0	1	22.5	67.5	-0.818201298963747	0.138376115880258	0.2	0	0	0	260.308045400307	260.408029284561	0.0999838842544705	0.200026526581496
57682.75	100	589	4	53	1	2	90	1	1	0	1	22.5	67.5	-2.12354309243589	-3.12364544579514	0.2	0	0	0	260.608052397612	260.708042864688	0.0999904670752585	0.200023113051429
57757.75	100	590	4	54	1	2	90	1	1	0	1	22.5	67.5	-1.28358328380443	-0.300231374401832	0.2	0	0	0	260.908061101567	261.00804669247	0.0999855909030885	0.200018236879259
57832.75	100	591	4	55	1	2	90	1	1	3	2	157.5	112.5	-0.0956679757327041	-3.09601098665037	0.2	0	0	0	261.208074681927	261.308054665104	0.099979983177036	0.20002798945643
