onset	duration	total_event_number	stream_number	event_num_per_stream	timing_predictability	target_col	target_ori	n_targets	n_distractors	is_target	ori_pair_num	att_ori	unatt_ori	gabor_phase_att	gabor_phase_unatt	blank_dur	response	rt	correct	time_stimon	time_stimoff	stim_dur	ISI_dur
7509.25	100	0	0	0	1	2	0	1	1	3	1	112.5	67.5	-1.14444168377707	-2.45771081634526	0.2	0	0	0	87.3709275566507	87.47089169221	0.0999641355592757	-1
7584.25	100	1	0	1	1	2	0	1	1	3	1	112.5	157.5	-2.93525984595668	-0.0905810898351107	0.2	0	0	0	87.6709384548012	87.7708964953199	0.0999580405186862	0.200046762591228
7659.25	100	2	0	2	1	2	0	1	1	3	2	157.5	22.5	1.34459918675747	1.05877180973551	0.2	0	0	0	87.9709249723237	88.0709056868218	0.0999807144980878	0.200028477003798
7734.25	100	3	0	3	1	2	0	1	1	3	1	22.5	157.5	-1.63839098782465	1.25335987898314	0.2	0	0	0	88.270930994302	88.3709151223302	0.0999841280281544	0.200025307480246
7809.25	100	4	0	4	1	2	0	1	1	0	1	112.5	157.5	-2.89569394179561	-0.610349196495922	0.2	0	0	0	88.5709179993719	88.6709287024569	0.10001070308499	0.200002877041698
7884.25	100	5	0	5	1	2	0	1	1	0	1	112.5	157.5	-0.0424677849855652	1.0120635540998	0.2	0	0	0	88.8709340174682	88.9709335055668	0.0999994880985469	0.200005315011367
7959.25	100	6	0	6	1	2	0	1	1	0	2	67.5	112.5	2.56953031064326	1.74553377443587	0.2	0	0	0	89.1709300435614	89.2709095391911	0.0999794956296682	0.199996537994593
8034.25	100	7	0	7	1	2	0	1	1	0	2	67.5	112.5	2.40695621294936	-1.30774180200136	0.2	0	0	0	89.4709385037422	89.5709206811152	0.0999821773730218	0.200028964551166
8109.25	100	8	0	8	1	2	0	1	1	0	1	112.5	157.5	-1.62380900938439	2.79647261105928	0.2	0	0	0	89.7709445257206	89.8709264595527	0.0999819338321686	0.200023844605312
8184.25	100	9	0	9	1	2	0	1	1	0	2	157.5	22.5	-0.69690189632809	-0.353715202578798	0.2	0	0	0	90.0709581058472	90.1709354072809	0.0999773014336824	0.200031646294519
8259.25	100	10	0	10	1	2	0	1	1	0	2	67.5	22.5	-1.94373772074258	-0.757711270473227	0.2	0	0	0	90.3709626651835	90.4709497189615	0.0999870537780225	0.200027257902548
8334.25	100	11	0	11	1	2	0	1	1	0	2	67.5	112.5	-1.04943031735575	-2.40697930326949	0.2	0	0	0	90.6710101349745	90.7709796342533	0.0999694992788136	0.200060416013002
8409.25	100	12	0	12	1	2	0	1	1	0	2	157.5	22.5	-2.41180403952829	-3.09412349151715	0.2	0	0	0	90.9709959207103	91.0709924830589	0.0999965623486787	0.200016286456957
8484.25	100	13	0	13	1	2	0	1	1	0	2	157.5	22.5	2.59299440052974	-1.26115720547208	0.2	0	0	0	91.2709982858505	91.3709975299425	0.0999992440920323	0.200005802791566
8559.25	100	14	0	14	1	2	0	1	1	3	2	67.5	22.5	0.593224565596263	0.896344656997023	0.2	0	0	0	91.5710206432268	91.6716881694738	0.10066752624698	0.20002311328426
8634.25	100	15	0	15	1	2	0	1	1	3	2	157.5	22.5	1.93183630366839	-0.99546920423862	0.2	0	0	0	91.8710056976415	91.9709864121396	0.0999807144980878	0.19931752816774
8709.25	100	16	0	16	1	2	0	1	1	3	1	112.5	67.5	-1.31441474764716	-1.93550313886116	0.2	0	0	0	92.1710102567449	92.2709895086009	0.0999792518559843	0.200023844605312
8784.25	100	17	0	17	1	2	0	1	1	2	-1	45	0	3.02401859642112	1.59343902507388	0.2	0	0	0	92.4710521190427	92.5710016260855	0.0999495070427656	0.200062610441819
8859.25	100	18	0	18	1	2	0	1	1	3	1	112.5	157.5	2.77707103435313	2.66364095828459	0.2	0	0	0	92.7710264457855	92.8710074042901	0.0999809585046023	0.200024819700047
8934.25	100	19	0	19	1	2	0	1	1	3	2	67.5	112.5	1.8175063395456	1.17084925774683	0.2	0	0	0	93.0710346621927	93.1710178148933	0.0999831527005881	0.200027257902548
9009.25	100	20	0	20	1	2	0	1	1	3	1	22.5	67.5	2.90072360382185	-0.850442149769129	0.2	0	0	0	93.371042147046	93.4710296883713	0.0999875413253903	0.20002433215268
9084.25	100	21	0	21	1	2	0	1	1	3	2	157.5	112.5	-0.0718180775924777	1.78510725507543	0.2	0	0	0	93.6710523138754	93.77103327238	0.0999809585046023	0.200022625504062
9159.25	100	22	0	22	1	2	0	1	1	0	1	112.5	67.5	0.38404344089111	-2.7205923282805	0.2	0	0	0	93.9710588236339	94.071044414537	0.0999855909030885	0.20002555125393
9234.25	100	23	0	23	1	2	0	1	1	0	2	157.5	22.5	-2.95238562583322	0.117451733904479	0.2	0	0	0	94.271067771595	94.3710516556166	0.0999838840216398	0.200023357057944
9309.25	100	24	0	24	1	2	0	1	1	0	2	67.5	22.5	-1.02440875347006	-1.57153600857891	0.2	0	0	0	94.5710742811207	94.6710601157974	0.0999858346767724	0.200022625504062
9384.25	100	25	0	25	1	2	0	1	1	0	1	22.5	67.5	3.09634950553452	2.12350840472367	0.2	0	0	0	94.8710822537541	94.9710646751337	0.0999824213795364	0.200022137956694
9459.25	100	26	0	26	1	2	0	1	1	0	2	67.5	112.5	-1.14954459080511	-2.7489264191908	0.2	0	0	0	95.1710921768099	95.271075573517	0.0999833967071027	0.200027501676232
9534.25	100	27	0	27	1	2	0	1	1	0	1	22.5	157.5	-2.78520606910256	-1.65787785117932	0.2	0	0	0	95.4711081951391	95.5710859841201	0.0999777889810503	0.200032621622086
9609.25	100	28	0	28	1	2	0	1	1	0	2	157.5	112.5	-0.405941277150814	-0.383226765117792	0.2	0	0	0	95.7711103162728	95.8710898119025	0.0999794956296682	0.20002433215268
9684.25	100	29	0	29	1	2	0	1	1	0	1	22.5	67.5	-2.57997350664218	-1.56488537854059	0.2	0	0	0	96.0711182889063	96.1710982720833	0.099979983177036	0.200028477003798
9759.25	100	30	0	30	1	2	0	1	1	0	1	22.5	157.5	0.739112278181411	-1.1106789502593	0.2	0	0	0	96.3711630767211	96.471111120889	0.0999480441678315	0.200064804637805
9834.25	100	31	0	31	1	2	0	1	1	0	2	157.5	22.5	-2.48319094558886	1.567882097121	0.2	0	0	0	96.6711405729875	96.7711176306475	0.0999770576599985	0.200029452098534
9909.25	100	32	0	32	1	2	0	1	1	0	1	112.5	67.5	1.13620405050879	-1.84138983902445	0.2	0	0	0	96.971167806536	97.0711368185002	0.0999690119642764	0.200050175888464
9984.25	100	33	0	33	1	2	0	1	1	0	2	67.5	22.5	-3.0217425787281	-1.76724380709688	0.2	0	0	0	97.2711779733654	97.3711606385186	0.0999826651532203	0.200041154865175
10059.25	100	34	0	34	1	2	0	1	1	0	1	22.5	157.5	0.0190575408623648	2.3593122605744	0.2	0	0	0	97.5711869213264	97.6711729997769	0.0999860784504563	0.200026282807812
10134.25	100	35	0	35	1	2	0	1	1	0	2	157.5	112.5	-0.114066645951335	1.47735568155797	0.2	0	0	0	97.8711936748587	97.9711673189886	0.0999736441299319	0.20002067508176
10209.25	100	36	0	36	1	2	0	1	1	0	2	67.5	22.5	-1.95341074623198	-0.228937741263957	0.2	0	0	0	98.1712060358841	98.271168952575	0.0999629166908562	0.200038716895506
10284.25	100	37	0	37	1	2	0	1	1	0	1	22.5	157.5	0.0611231937935903	1.3273932798558	0.2	0	0	0	98.4712093761191	98.5711783878505	0.0999690117314458	0.200040423544124
10359.25	100	38	0	38	1	2	0	1	1	0	2	157.5	22.5	-1.06032685315497	2.21523563513776	0.2	0	0	0	98.7712032077834	98.8712022081017	0.0999990003183484	0.200024819932878
10434.25	100	39	0	39	1	2	0	1	1	0	2	157.5	22.5	2.51242365363698	-0.830792443608803	0.2	0	0	0	99.0712060602382	99.1712101807352	0.100004120497033	0.200003852136433
10509.25	100	40	0	40	1	2	0	1	1	0	1	112.5	67.5	1.61735787167918	-1.9405995981619	0.2	0	0	0	99.3712347566616	99.4712171780411	0.0999824213795364	0.200024575926363
10584.25	100	41	0	41	1	2	0	1	1	0	1	22.5	67.5	-1.00541580861551	0.777677136889456	0.2	0	0	0	99.6712439483963	99.7712244191207	0.0999804707244039	0.20002677035518
10659.25	100	42	0	42	1	2	0	1	1	0	2	67.5	22.5	-0.134240128810815	-0.570056131328935	0.2	0	0	0	99.9712509457022	100.071235805051	0.0999848593492061	0.200026526581496
10734.25	100	43	0	43	1	2	0	1	1	0	2	67.5	22.5	-0.932791914246133	2.47375752567992	0.2	0	0	0	100.271259162109	100.37124231481	0.0999831527005881	0.200023357057944
10809.25	100	44	0	44	1	2	0	1	1	0	1	22.5	157.5	0.996679769200183	3.03517804539417	0.2	0	0	0	100.571268597385	100.671252481639	0.0999838842544705	0.200026282574981
10884.25	100	45	0	45	1	2	0	1	1	0	1	112.5	67.5	-0.739450443591684	-0.192313338291628	0.2	0	0	0	100.871276570018	100.971242168453	0.0999655984342098	0.200024088378996
10959.25	100	46	0	46	1	2	0	1	1	0	1	22.5	157.5	1.58072416202046	0.550230403574239	0.2	0	0	0	101.171282348456	101.27126574493	0.099983396474272	0.200040180003271
11034.25	100	47	0	47	1	2	0	1	1	0	1	22.5	157.5	0.826235905287895	-2.92189768851311	0.2	0	0	0	101.471277155215	101.571275424212	0.0999982689972967	0.200011410284787
11109.25	100	48	0	48	1	2	0	1	1	0	2	67.5	22.5	-0.663783836603507	2.87443857682404	0.2	0	0	0	101.771299756365	101.871252432931	0.0999526765663177	0.20002433215268
11184.25	100	49	0	49	1	2	0	1	1	0	1	22.5	67.5	2.81054980121655	-3.02774812595326	0.2	0	0	0	102.071279690834	102.171298439847	0.100018749013543	0.200027257902548
11259.25	100	50	0	50	1	2	0	1	1	0	1	22.5	67.5	-1.98479175768389	2.46570531197104	0.2	0	0	0	102.371322772	102.471283006715	0.099960234714672	0.20002433215268
11334.25	100	51	0	51	1	2	0	1	1	0	2	157.5	112.5	-0.546240404057349	-2.96396440438844	0.2	0	0	0	102.671326843556	102.771311703138	0.0999848595820367	0.20004383684136
11409.25	100	52	0	52	1	2	0	1	1	0	1	112.5	157.5	0.0469885256364773	-2.19480689875203	0.2	0	0	0	102.971305071376	103.071320650866	0.100015579489991	0.199993368238211
11484.25	100	53	0	53	1	2	0	1	1	0	2	157.5	112.5	0.296962648552687	0.0221283338447242	0.2	0	0	0	103.271314019337	103.37129619671	0.0999821773730218	0.199993368471041
11559.25	100	54	0	54	1	2	0	1	1	0	2	67.5	112.5	0.229439936996904	-2.75601619750989	0.2	0	0	0	103.571319553768	103.67130928929	0.0999897355213761	0.200023357057944
11634.25	100	55	0	55	1	2	0	1	1	0	1	112.5	67.5	1.74883602843128	-0.175317786002163	0.2	0	0	0	103.871355564333	103.971338961041	0.0999833967071027	0.20004627504386
11709.25	100	56	0	56	1	2	0	1	1	0	2	157.5	112.5	-0.610691843671823	-1.91753362405478	0.2	0	0	0	104.171339156106	104.271320358384	0.0999812022782862	0.200000195065513
11784.25	100	57	0	57	1	2	0	1	1	0	1	112.5	67.5	2.12036361041186	-1.83885234092466	0.2	0	0	0	104.471343471436	104.571326380363	0.0999829089269042	0.200023113051429
11859.25	100	58	0	58	1	2	0	1	1	0	1	112.5	67.5	2.29024575621731	-0.051809562932394	0.2	0	0	0	104.771350468742	104.871368242428	0.100017773685977	0.200024088378996
11934.25	100	59	0	59	1	2	0	1	1	0	1	22.5	67.5	-0.717137945378496	-2.9051890081633	0.2	0	0	0	105.071388917509	105.171373289311	0.0999843718018383	0.20002067508176
12009.25	100	60	0	60	1	2	0	1	1	0	1	22.5	157.5	2.74983655967848	-0.199855219588133	0.2	0	0	0	105.3713825054	105.471351273358	0.0999687679577619	0.200009216088802
12084.25	100	61	0	61	1	2	0	1	1	0	1	22.5	157.5	-0.884443759870745	-1.90545258900739	0.2	0	0	0	105.67138682073	105.771362659289	0.0999758385587484	0.200035547371954
12159.25	100	62	0	62	1	2	0	1	1	0	2	67.5	22.5	-1.98593552495017	1.77189111920925	0.2	0	0	0	105.971392599167	106.071366243297	0.0999736441299319	0.200029939878732
12234.25	100	63	0	63	1	2	0	1	1	0	2	157.5	112.5	1.89557932734143	-2.24336558260552	0.2	0	0	0	106.271396670723	106.371376897674	0.09998022695072	0.2000304274261
12309.25	100	64	0	64	1	2	0	1	1	0	1	112.5	157.5	-0.386739915125322	-0.351427878220933	0.2	0	0	0	106.571401229827	106.671381944558	0.0999807147309184	0.20002433215268
12384.25	100	65	0	65	1	2	0	1	1	0	1	112.5	157.5	-0.348848157706706	2.5664869469491	0.2	0	0	0	106.871408471139	106.971393574262	0.09998510312289	0.200026526581496
12459.25	100	66	0	66	1	2	0	1	1	0	1	22.5	67.5	1.27384640281119	-0.352819463093382	0.2	0	0	0	107.171419613063	107.2713993527	0.0999797396361828	0.200026038801298
12534.25	100	67	0	67	1	2	0	1	1	0	1	22.5	67.5	-0.972861435678653	-1.84972194503443	0.2	0	0	0	107.471423684852	107.571409519529	0.0999858346767724	0.20002433215268
12609.25	100	68	0	68	1	2	0	1	1	0	2	157.5	112.5	2.01646910789818	-0.0797407029587092	0.2	0	0	0	107.771434826776	107.871415785281	0.0999809585046023	0.200025307247415
12684.25	100	69	0	69	1	2	0	1	1	0	1	22.5	67.5	0.0442981294428608	1.94769971791041	0.2	0	0	0	108.071462304331	108.171424977016	0.0999626726843417	0.200046519050375
12759.25	100	70	0	70	1	2	0	1	1	0	1	112.5	157.5	1.58803070045821	-1.35500523775733	0.2	0	0	0	108.371453210246	108.471432461869	0.0999792516231537	0.200028233230114
12834.25	100	71	0	71	1	2	0	1	1	0	1	112.5	157.5	2.60788782349541	-0.78536015188669	0.2	0	0	0	108.671458256897	108.771440678276	0.0999824213795364	0.200025795027614
12909.25	100	72	0	72	1	2	0	1	1	0	2	67.5	22.5	1.2373499863116	1.92274112655631	0.2	0	0	0	108.971467204858	109.071447919356	0.0999807144980878	0.200026526581496
12984.25	100	73	0	73	1	2	0	1	1	0	2	157.5	112.5	2.82401567861942	0.843546576347573	0.2	0	0	0	109.271473714616	109.371457842411	0.0999841277953237	0.200025795260444
13059.25	100	74	0	74	1	2	0	1	1	0	2	157.5	22.5	-2.87308983245148	2.78229665712504	0.2	0	0	0	109.571490220493	109.671467521694	0.0999773012008518	0.200032378081232
13134.25	100	75	0	75	1	2	0	1	1	0	1	22.5	67.5	-2.06292151406982	-0.431692738881567	0.2	0	0	0	109.871491853846	109.971470861929	0.0999790080823004	0.20002433215268
13209.25	100	76	0	76	1	2	0	1	1	0	2	67.5	112.5	1.58125696455694	2.7646700766467	0.2	0	0	0	110.17149738851	110.271480784984	0.099983396474272	0.200026526581496
13284.25	100	77	0	77	1	2	0	1	1	3	1	22.5	67.5	2.02818861706014	-0.162724074999431	0.2	0	0	0	110.471505360911	110.571488757618	0.0999833967071027	0.200024575926363
13359.25	100	78	0	78	1	2	0	1	1	3	1	22.5	157.5	-2.56356391165692	3.13265034058467	0.2	0	0	0	110.771514308872	110.871499411995	0.09998510312289	0.20002555125393
13434.25	100	79	0	79	1	2	0	1	1	3	2	67.5	22.5	1.20548689513187	-1.74287128831185	0.2	0	0	0	111.071523988154	111.171534203691	0.100010215537623	0.200024576159194
13509.25	100	80	0	80	1	2	0	1	1	1	-1	0	45	1.00908695592404	2.8684698204319	0.2	0	0	0	111.371531716781	111.471514869481	0.0999831527005881	0.199997513089329
13584.25	100	81	0	81	1	2	0	1	1	3	2	157.5	22.5	-1.13043653330534	-1.32950475886542	0.2	0	0	0	111.671540176962	111.771520160139	0.099979983177036	0.200025307480246
13659.25	100	82	0	82	1	2	0	1	1	3	1	112.5	67.5	0.632620729062482	-2.95678357194865	0.2	0	0	0	111.971546442946	112.071532765171	0.0999863222241402	0.200026282807812
13734.25	100	83	0	83	1	2	0	1	1	3	2	157.5	112.5	1.89340125193565	-0.794887287338932	0.2	0	0	0	112.271555634448	112.371569263516	0.100013629067689	0.200022869277745
13809.5	100	84	0	84	1	2	0	1	1	3	2	67.5	112.5	-2.78695472686267	-0.884048754030096	0.2	0	0	0	112.57159481477	112.671574797947	0.099979983177036	0.20002555125393
13884.5	100	85	0	85	1	2	0	1	1	0	2	157.5	112.5	0.704946838479914	2.07894456358741	0.2	0	0	0	112.87160254363	112.971569360932	0.0999668173026294	0.200027745682746
13959.5	100	86	0	86	1	2	0	1	1	0	2	157.5	22.5	-2.83887598001031	1.55515790773143	0.2	0	0	0	113.171594180865	113.271562461276	0.0999682804103941	0.200024819932878
14034.5	100	87	0	87	1	2	0	1	1	0	2	67.5	22.5	-0.210810947320084	2.70258773495419	0.2	0	0	0	113.471588500077	113.571570677683	0.0999821776058525	0.200026038801298
14109.5	100	88	0	88	1	2	0	1	1	0	2	67.5	112.5	2.31704065733274	0.122948551257211	0.2	0	0	0	113.771598423133	113.871583526488	0.0999851033557206	0.200027745449916
14184.5	100	89	0	89	1	2	0	1	1	0	2	157.5	112.5	0.921058809120816	-3.05182429583405	0.2	0	0	0	114.071638334775	114.171617098851	0.0999787640757859	0.20005480828695
14259.5	100	90	0	90	1	2	0	1	1	0	1	112.5	67.5	3.12238191157843	0.810990547347716	0.2	0	0	0	114.37164118723	114.471619951539	0.0999787643086165	0.200024088378996
14334.5	100	91	0	91	1	2	0	1	1	0	1	112.5	157.5	-3.13112152733227	-2.20468661691803	0.2	0	0	0	114.67165184184	114.771633044118	0.0999812022782862	0.200031890301034
14409.5	100	92	0	92	1	2	0	1	1	0	2	157.5	112.5	-1.9173671718712	-3.01054346120974	0.2	0	0	0	114.971658839146	115.071640772978	0.0999819338321686	0.200025795027614
14484.5	100	93	0	93	1	2	0	1	1	0	2	67.5	22.5	1.80251341986775	2.82812886886053	0.2	0	0	0	115.271642430685	115.37162338919	0.0999809585046023	0.200001657707617
14559.5	100	94	0	94	1	2	0	1	1	0	1	112.5	157.5	2.61196294655879	-3.12942874939053	0.2	0	0	0	115.571650890866	115.671632824698	0.0999819338321686	0.200027501676232
14634.5	100	95	0	95	1	2	0	1	1	0	1	112.5	67.5	-1.01492090160716	3.03901661898804	0.2	0	0	0	115.871660326375	115.971641284879	0.0999809585046023	0.200027501676232
14709.5	100	96	0	96	1	2	0	1	1	0	1	22.5	157.5	-1.18549225572119	1.84186523787683	0.2	0	0	0	116.171696580946	116.271659009857	0.0999624289106578	0.200055296067148
14784.5	100	97	0	97	1	2	0	1	1	0	2	157.5	22.5	-0.312105961250945	-0.911723925907713	0.2	0	0	0	116.471681147814	116.571685755858	0.100004608044401	0.200022137956694
14859.5	100	98	0	98	1	2	0	1	1	0	1	112.5	67.5	2.02274507230706	2.92566462427556	0.2	0	0	0	116.771706674714	116.871691534063	0.0999848593492061	0.200020918855444
14934.5	100	99	0	99	1	2	0	1	1	0	2	67.5	22.5	-1.81961756797715	-0.861908264968004	0.2	0	0	0	117.07171367202	117.171701944666	0.0999882726464421	0.200022137956694
15009.5	100	100	0	100	1	2	0	1	1	0	2	67.5	112.5	1.18245370038821	0.330745087853248	0.2	0	0	0	117.371705065481	117.471690168604	0.09998510312289	0.200003120815381
15084.5	100	101	0	101	1	2	0	1	1	0	1	112.5	157.5	3.00113127185343	-0.0616970281926301	0.2	0	0	0	117.671711331466	117.771696190815	0.0999848593492061	0.200021162861958
15159.5	100	102	0	102	1	2	0	1	1	0	1	112.5	67.5	2.73600756423546	-1.64154103151561	0.2	0	0	0	117.971738565015	118.071698555723	0.0999599907081574	0.200042374199256
15234.5	100	103	0	103	1	2	0	1	1	0	2	157.5	112.5	-2.24251762930688	-1.40233073331032	0.2	0	0	0	118.271724838531	118.371708478779	0.0999836402479559	0.200026282807812
15309.5	100	104	0	104	1	2	0	1	1	0	1	112.5	67.5	3.04934136775059	2.54116928534703	0.2	0	0	0	118.571734761586	118.671715476085	0.0999807144980878	0.200026282807812
15384.5	100	105	0	105	1	2	0	1	1	0	1	22.5	67.5	-2.43719164236003	2.10821414886115	0.2	0	0	0	118.871744440636	118.971724667819	0.0999802271835506	0.200028964551166
15459.5	100	106	0	106	1	2	0	1	1	0	2	157.5	22.5	-1.33516385582695	0.650226571409278	0.2	0	0	0	119.171749731293	119.27173605375	0.0999863224569708	0.200025063473731
15534.5	100	107	0	107	1	2	0	1	1	0	1	112.5	157.5	-1.82991332891006	1.9554894357016	0.2	0	0	0	119.471759410575	119.571738662431	0.0999792518559843	0.200023356825113
15609.5	100	108	0	108	1	2	0	1	1	0	1	22.5	157.5	2.20384908336376	-0.314041496398849	0.2	0	0	0	119.771783718374	119.871777354972	0.0999936365988106	0.20004505594261
15684.5	100	109	0	109	1	2	0	1	1	0	1	112.5	67.5	0.0978077731808566	-1.49714660567793	0.2	0	0	0	120.071798517602	120.171763140941	0.0999646233394742	0.200021162629128
15759.5	100	110	0	110	1	2	0	1	1	0	2	67.5	112.5	0.0310494780163362	1.08054583235698	0.2	0	0	0	120.371801614063	120.471788911615	0.0999872975517064	0.200038473121822
15834.5	100	111	0	111	1	2	0	1	1	0	1	112.5	157.5	2.55851487169897	-0.00873877423332692	0.2	0	0	0	120.671811293345	120.771802491741	0.0999911983963102	0.200022381730378
15909.5	100	112	0	112	1	2	0	1	1	0	1	22.5	67.5	-1.137782696916	1.40048098189903	0.2	0	0	0	120.971820484847	121.071802906226	0.0999824213795364	0.200017993105575
15984.5	100	113	0	113	1	2	0	1	1	0	2	67.5	112.5	2.40575457514322	-1.00824220190322	0.2	0	0	0	121.271830651909	121.37180795311	0.0999773012008518	0.200027745682746
16059.5	100	114	0	114	1	2	0	1	1	0	2	157.5	22.5	1.77294001512751	-2.95722038915647	0.2	0	0	0	121.571819119621	121.671799346572	0.09998022695072	0.200011166511104
16134.5	100	115	0	115	1	2	0	1	1	0	1	22.5	157.5	-0.204298678277246	-2.90713483982161	0.2	0	0	0	121.871851960663	121.97182950587	0.0999775452073663	0.200052614090964
16209.5	100	116	0	116	1	2	0	1	1	0	2	67.5	22.5	0.769012080212552	3.11627118830887	0.2	0	0	0	122.171852619154	122.271822605981	0.0999699868261814	0.20002311328426
16284.5	100	117	0	117	1	2	0	1	1	0	1	22.5	67.5	-2.88198335985149	-2.10112047249208	0.2	0	0	0	122.471846450586	122.571824971121	0.0999785205349326	0.200023844605312
16359.5	100	118	0	118	1	2	0	1	1	0	2	67.5	112.5	1.92450122702866	1.64229640384734	0.2	0	0	0	122.77184857172	122.871833675075	0.0999851033557206	0.200023600598797
16434.5	100	119	0	119	1	2	0	1	1	0	2	67.5	112.5	0.616698009436393	0.400477136122959	0.2	0	0	0	123.07188409497	123.171861152397	0.0999770574271679	0.200050419894978
16509.5	100	120	0	120	1	2	0	1	1	0	2	157.5	22.5	2.2549298947719	2.84960666367772	0.2	0	0	0	123.371911816066	123.471851814538	0.0999399984721094	0.200050663668662
16584.5	100	121	0	121	1	2	0	1	1	0	1	22.5	157.5	-2.50445123354187	1.53095068701879	0.2	0	0	0	123.671882241964	123.771875878563	0.0999936365988106	0.2000304274261
16659.5	100	122	0	122	1	2	0	1	1	0	2	67.5	112.5	2.78457669017778	2.14496123435732	0.2	0	0	0	123.971901429817	124.071889214916	0.0999877850990742	0.20002555125393
16734.5	100	123	0	123	1	2	0	1	1	0	2	157.5	112.5	-1.53915871804352	-0.55024246133664	0.2	0	0	0	124.271902088076	124.371894018026	0.0999919299501926	0.200012873159721
16809.5	100	124	0	124	1	2	0	1	1	3	1	22.5	67.5	-2.45640351420212	1.57441199698793	0.2	0	0	0	124.571900308132	124.671902965754	0.100002657622099	0.200006290106103
16884.5	100	125	0	125	1	2	0	1	1	3	2	67.5	112.5	-0.633797754730264	-1.02136438945323	0.2	0	0	0	124.87192681036	124.971910450608	0.0999836402479559	0.200023844605312
16959.5	100	126	0	126	1	2	0	1	1	3	2	67.5	22.5	2.0449276001686	-2.30138420317858	0.2	0	0	0	125.171911377227	125.271894773701	0.099983396474272	0.200000926619396
17034.5	100	127	0	127	1	2	0	1	1	3	2	157.5	112.5	1.13504296285269	-3.03717662201267	0.2	0	0	0	125.471919349628	125.571904940531	0.0999855909030885	0.200024575926363
18222	100	128	1	0	1	2	90	1	1	3	2	67.5	112.5	0.407389174575408	-2.07371603684823	0.2	0	0	0	130.222071791766	130.32205811399	0.0999863222241402	-1
18297	100	129	1	1	1	2	90	1	1	3	2	157.5	112.5	-1.59912434349879	0.882600432765418	0.2	0	0	0	130.522095855791	130.622059259797	0.0999634040053934	0.20003774180077
18372	100	130	1	2	1	2	90	1	1	3	1	22.5	67.5	1.25425063753982	-1.81364635534716	0.2	0	0	0	130.822089931229	130.922045533312	0.0999556020833552	0.200030671432614
18447	100	131	1	3	1	2	90	1	1	3	1	22.5	157.5	-1.78808072575611	1.62197969354263	0.2	0	0	0	131.12209790363	131.222071303986	0.099973400356248	0.20005237031728
18522	100	132	1	4	1	2	90	1	1	0	2	67.5	112.5	1.07321366646929	0.0307990239942222	0.2	0	0	0	131.42207613145	131.522056358634	0.0999802271835506	0.200004827463999
18597	100	133	1	5	1	2	90	1	1	0	1	112.5	157.5	0.687118073747145	2.84711741244741	0.2	0	0	0	131.722099707928	131.822098464472	0.0999987565446645	0.200043349293992
18672	100	134	1	6	1	2	90	1	1	0	1	112.5	67.5	-2.03725622097843	2.18548031581103	0.2	0	0	0	132.02212133375	132.122090833262	0.0999694995116442	0.200022869277745
18747	100	135	1	7	1	2	90	1	1	0	2	67.5	22.5	1.57742592186632	1.42861265706089	0.2	0	0	0	132.322130769258	132.422117823036	0.0999870537780225	0.200039935996756
18822	100	136	1	8	1	2	90	1	1	0	1	22.5	157.5	-0.664546870767616	-0.801061158808685	0.2	0	0	0	132.622126307571	132.722147982102	0.100021674530581	0.200008484534919
18897	100	137	1	9	1	2	90	1	1	0	1	112.5	157.5	0.248406318536236	-2.86819205414294	0.2	0	0	0	132.9221352553	133.022114507155	0.0999792518559843	0.199987273197621
18972	100	138	1	10	1	2	90	1	1	0	1	112.5	67.5	0.614311517385935	0.355905337397842	0.2	0	0	0	133.222159563098	133.322142959805	0.0999833967071027	0.20004505594261
19047	100	139	1	11	1	2	90	1	1	0	2	67.5	112.5	0.805090318834726	1.54359826719544	0.2	0	0	0	133.522168998607	133.622137766564	0.0999687679577619	0.200026038801298
19122	100	140	1	12	1	2	90	1	1	0	1	22.5	157.5	-0.362284552576376	2.64563886445739	0.2	0	0	0	133.82217940921	133.922158904839	0.0999794956296682	0.200041642645374
19197	100	141	1	13	1	2	90	1	1	0	1	22.5	157.5	-2.78983107191377	-1.86815635295057	0.2	0	0	0	134.122186162742	134.222149810754	0.0999636480119079	0.200027257902548
19272	100	142	1	14	1	2	90	1	1	0	1	22.5	157.5	1.80137054522558	-2.14599351584179	0.2	0	0	0	134.422170973383	134.522151200566	0.0999802271835506	0.200021162629128
19347	100	143	1	15	1	2	90	1	1	0	2	67.5	112.5	2.259637798783	3.01891828666614	0.2	0	0	0	134.722177239368	134.822163074045	0.0999858346767724	0.200026038801298
19422	100	144	1	16	1	2	90	1	1	0	1	22.5	67.5	-0.0618023661148634	1.50455034377552	0.2	0	0	0	135.022184968228	135.122167389374	0.0999824211467057	0.20002189418301
19497	100	145	1	17	1	2	90	1	1	0	2	67.5	22.5	0.496326495462818	-0.0967129558422704	0.2	0	0	0	135.322193428408	135.422174142906	0.0999807144980878	0.200026039034128
19572	100	146	1	18	1	2	90	1	1	0	1	22.5	67.5	-1.45473039503128	1.49842861513763	0.2	0	0	0	135.622200913262	135.722183334641	0.0999824213795364	0.20002677035518
19647	100	147	1	19	1	2	90	1	1	0	1	112.5	157.5	2.50494444145563	-2.2026885011016	0.2	0	0	0	135.922211567638	136.022192769917	0.0999812022782862	0.200028232997283
19722	100	148	1	20	1	2	90	1	1	0	2	157.5	112.5	1.16657612129924	0.276744512246049	0.2	0	0	0	136.222216614522	136.322201961651	0.0999853471294045	0.200023844605312
19797	100	149	1	21	1	2	90	1	1	0	1	22.5	67.5	-1.74744766919273	1.05956885166383	0.2	0	0	0	136.522228244226	136.622208715184	0.0999804709572345	0.200026282574981
19872	100	150	1	22	1	2	90	1	1	0	2	67.5	22.5	1.99467295478198	0.652091812312239	0.2	0	0	0	136.822235485539	136.922216200037	0.0999807144980878	0.20002677035518
19947	100	151	1	23	1	2	90	1	1	0	1	22.5	157.5	3.05438450156702	-2.12897572727312	0.2	0	0	0	137.122242482845	137.222227585968	0.09998510312289	0.200026282807812
20022	100	152	1	24	1	2	90	1	1	0	2	157.5	112.5	-0.967890784746257	-2.28214082394335	0.2	0	0	0	137.422250455478	137.5222343395	0.0999838840216398	0.200022869510576
20097	100	153	1	25	1	2	90	1	1	0	1	112.5	67.5	3.11348976879527	0.784328575065778	0.2	0	0	0	137.722284515621	137.822262060829	0.0999775452073663	0.200050176121294
20172	100	154	1	26	1	2	90	1	1	0	2	157.5	112.5	-0.10600979647384	2.41494648245077	0.2	0	0	0	138.022276884411	138.122252478963	0.0999755945522338	0.200014823582023
20247	100	155	1	27	1	2	90	1	1	0	1	112.5	157.5	-2.01864853822853	-2.27378168622991	0.2	0	0	0	138.322274860693	138.42226362112	0.0999887604266405	0.200022381730378
20322	100	156	1	28	1	2	90	1	1	0	1	112.5	67.5	1.36269706887646	-3.09698125008301	0.2	0	0	0	138.622283564648	138.722262816504	0.0999792518559843	0.200019943527877
20397	100	157	1	29	1	2	90	1	1	0	2	157.5	112.5	-1.01239675721874	-2.6212893543501	0.2	0	0	0	138.922292756382	139.022298827302	0.100006070919335	0.200029939878732
20472	100	158	1	30	1	2	90	1	1	0	2	157.5	22.5	1.45979399520316	1.79204803456544	0.2	0	0	0	139.222304873634	139.322282175068	0.0999773014336824	0.200006046332419
20547	100	159	1	31	1	2	90	1	1	0	2	67.5	112.5	0.524306390462286	-0.686247815832283	0.2	0	0	0	139.522309189197	139.622289903695	0.0999807144980878	0.200027014128864
20622	100	160	1	32	1	2	90	1	1	0	1	112.5	67.5	-2.4651984895084	-0.277831711313182	0.2	0	0	0	139.822314967401	139.922299826751	0.0999848593492061	0.200025063706562
20697	100	161	1	33	1	2	90	1	1	0	2	67.5	112.5	0.17640924868354	3.10404732515791	0.2	0	0	0	140.122321964707	140.222311944235	0.0999899795278907	0.200022137956694
20772	100	162	1	34	1	2	90	1	1	3	1	22.5	67.5	2.20437698545039	0.698347395958533	0.2	0	0	0	140.42233530106	140.522344297729	0.100008996669203	0.200023356825113
20847	100	163	1	35	1	2	90	1	1	3	1	112.5	67.5	-0.139495880304704	-1.4871091184487	0.2	0	0	0	140.722348149866	140.822326426394	0.0999782765284181	0.200003852136433
20922	100	164	1	36	1	2	90	1	1	3	1	112.5	157.5	0.247062387303933	1.26268732672093	0.2	0	0	0	141.022347589023	141.122329522856	0.0999819338321686	0.200021162629128
20997	100	165	1	37	1	2	90	1	1	1	-1	90	135	2.28166763471987	-3.12915798708099	0.2	0	0	0	141.32235507411	141.422340177232	0.09998510312289	0.20002555125393
21072	100	166	1	38	1	2	90	1	1	3	2	67.5	112.5	-0.335181712986271	-1.37266887550783	0.2	0	0	0	141.622362558963	141.722345711896	0.0999831529334188	0.200022381730378
21147	100	167	1	39	1	2	90	1	1	3	2	157.5	22.5	-0.0459341745147754	1.24803181754663	0.2	1	0.492177002830431	1	141.922372238245	142.022358804476	0.0999865662306547	0.200026526348665
21222	100	168	1	40	1	2	90	1	1	3	2	157.5	112.5	0.520310308059414	-2.068235427245	0.2	0	0	0	142.222387281246	142.32236750843	0.0999802271835506	0.200028476770967
21297	100	169	1	41	1	2	90	1	1	3	2	67.5	22.5	2.03485335198946	-2.93628774448337	0.2	0	0	0	142.522398910951	142.622375237057	0.0999763261061162	0.200031402520835
21372	100	170	1	42	1	2	90	1	1	0	2	157.5	112.5	-1.86536447302388	0.114601291262405	0.2	0	0	0	142.822421024553	142.922396375332	0.0999753507785499	0.200045787496492
21447	100	171	1	43	1	2	90	1	1	0	1	22.5	67.5	-2.55375005124983	-1.08187581746367	0.2	0	0	0	143.12241095514	143.2223938643	0.0999829091597348	0.200014579808339
21522	100	172	1	44	1	2	90	1	1	0	2	157.5	112.5	1.64112134904468	2.9606407052659	0.2	0	0	0	143.422416002024	143.522398910951	0.0999829089269042	0.200022137723863
21597	100	173	1	45	1	2	90	1	1	0	1	22.5	67.5	0.330402112339371	-2.50314374313467	0.2	0	0	0	143.722442748025	143.82242663228	0.0999838842544705	0.20004383707419
21672	100	174	1	46	1	2	90	1	1	0	2	67.5	22.5	-1.23937087440986	1.89862878811479	0.2	0	0	0	144.02243072819	144.122413149569	0.0999824213795364	0.200004095910117
21747	100	175	1	47	1	2	90	1	1	0	1	112.5	157.5	2.46397642752547	-0.700710186345233	0.2	0	0	0	144.322447234066	144.422388207866	0.0999409737996757	0.20003408449702
21822	100	176	1	48	1	2	90	1	1	0	2	157.5	112.5	2.41652627518355	1.9189958998918	0.2	0	0	0	144.622460814426	144.722446161322	0.0999853468965739	0.200072606559843
21897	100	177	1	49	1	2	90	1	1	0	1	22.5	67.5	0.260583971589154	-0.344943025175433	0.2	0	0	0	144.922467080178	145.022453402402	0.0999863222241402	0.200020918855444
21972	100	178	1	50	1	2	90	1	1	0	2	67.5	112.5	3.0689156048134	1.05190971041484	0.2	0	0	0	145.222478953656	145.322459180839	0.0999802271835506	0.20002555125393
22047	100	179	1	51	1	2	90	1	1	0	2	67.5	22.5	2.11091962847367	-1.08937055543106	0.2	0	0	0	145.522484975867	145.622467884794	0.0999829089269042	0.200025795027614
22122	100	180	1	52	1	2	90	1	1	0	2	67.5	22.5	1.55854173829919	-1.73048020452352	0.2	0	0	0	145.822481977055	145.922465129755	0.0999831527005881	0.200014092260972
22197	100	181	1	53	1	2	90	1	1	0	1	112.5	157.5	-1.31141360521045	-0.29892400876636	0.2	0	0	0	146.122487755259	146.222472370835	0.0999846155755222	0.200022625504062
22272	100	182	1	54	1	2	90	1	1	0	2	67.5	22.5	-3.07360912195741	1.88624888690731	0.2	0	0	0	146.422522303183	146.522523497697	0.100001194514334	0.200049932347611
22347	100	183	1	55	1	2	90	1	1	0	1	22.5	67.5	1.1221348732646	-0.971970439199933	0.2	0	0	0	146.722529056715	146.822507577017	0.099978520302102	0.200005559017882
22422	100	184	1	56	1	2	90	1	1	0	2	67.5	22.5	1.47727975736582	-1.69707522076055	0.2	0	0	0	147.02253190917	147.122520425823	0.0999885166529566	0.20002433215268
22497	100	185	1	57	1	2	90	1	1	0	1	112.5	157.5	-0.938287688663809	-0.52863593918371	0.2	0	0	0	147.322545977077	147.422523034504	0.0999770574271679	0.20002555125393
22572	100	186	1	58	1	2	90	1	1	0	1	22.5	157.5	-0.133448212508767	-2.53908507257287	0.2	0	0	0	147.622553218156	147.722518572817	0.0999653546605259	0.200030183652416
22647	100	187	1	59	1	2	90	1	1	0	2	157.5	22.5	0.422054636353843	-1.15780608067734	0.2	0	0	0	147.922557289712	148.022519474849	0.0999621851369739	0.200038716895506
22722	100	188	1	60	1	2	90	1	1	0	2	157.5	22.5	-1.57184708606311	0.457666412919315	0.2	0	0	0	148.22257257672	148.32254865882	0.0999760820996016	0.200053101871163
22797	100	189	1	61	1	2	90	1	1	0	1	112.5	67.5	1.2416753459786	0.286014512896225	0.2	0	0	0	148.522554949159	148.622537858086	0.0999829089269042	0.200006290338933
22872	100	190	1	62	1	2	90	1	1	0	1	22.5	157.5	0.392758854615105	0.612298311156204	0.2	0	0	0	148.822562434245	148.92257313733	0.10001070308499	0.200024576159194
22947	100	191	1	63	1	2	90	1	1	0	1	22.5	157.5	-0.719247876901764	-1.31936072988647	0.2	0	0	0	149.122591861989	149.222576477565	0.0999846155755222	0.200018724659458
23022	100	192	1	64	1	2	90	1	1	0	2	67.5	112.5	-2.45293057669825	-2.98580332841614	0.2	0	0	0	149.422575697303	149.522558362456	0.0999826651532203	0.199999219737947
23097	100	193	1	65	1	2	90	1	1	0	2	67.5	112.5	0.338959858648985	-2.97510800772482	0.2	0	0	0	149.722590252757	149.822565359762	0.099975107004866	0.200031890301034
23172	100	194	1	66	1	2	90	1	1	0	1	22.5	157.5	-1.13300627516663	-1.01158878831462	0.2	0	0	0	150.022584084421	150.122561873402	0.0999777889810503	0.200018724659458
23247	100	195	1	67	1	2	90	1	1	0	1	22.5	67.5	1.41295872400107	-1.90719279642861	0.2	0	0	0	150.322591569507	150.422572040232	0.0999804707244039	0.200029696105048
23322	100	196	1	68	1	2	90	1	1	0	2	157.5	22.5	-2.05751780690797	0.433349830546669	0.2	0	0	0	150.622606856283	150.722585132811	0.0999782765284181	0.200034816050902
23397	100	197	1	69	1	2	90	1	1	0	1	112.5	157.5	-0.663542308706505	-1.47429430885975	0.2	0	0	0	150.922609464964	151.022589204367	0.0999797394033521	0.20002433215268
23472	100	198	1	70	1	2	90	1	1	0	1	112.5	67.5	-1.90873050103661	1.64568668384067	0.2	0	0	0	151.222647182411	151.322622776963	0.0999755945522338	0.200057978043333
23547	100	199	1	71	1	2	90	1	1	0	2	67.5	112.5	-0.576334457565442	0.636938867080994	0.2	0	0	0	151.522636137903	151.622609538259	0.099973400356248	0.20001336093992
23622	100	200	1	72	1	2	90	1	1	0	1	112.5	67.5	0.479897208684748	1.01996033685421	0.2	0	0	0	151.822632407537	151.922647255473	0.100014847936109	0.200022869277745
23697	100	201	1	73	1	2	90	1	1	0	1	112.5	157.5	-2.46988744039516	1.47985788458762	0.2	0	0	0	152.122640623944	152.222626946168	0.0999863222241402	0.199993368471041
23772	100	202	1	74	1	2	90	1	1	0	2	157.5	112.5	-2.79725808333266	0.135790892363226	0.2	0	0	0	152.422648352571	152.522628579754	0.0999802271835506	0.200021406402811
23847	100	203	1	75	1	2	90	1	1	3	2	67.5	112.5	-0.111413373765371	-0.461363277056386	0.2	0	0	0	152.722654374782	152.822634601733	0.09998022695072	0.200025795027614
23922	100	204	1	76	1	2	90	1	1	3	1	112.5	157.5	-1.87525021602788	-1.20370824528211	0.2	0	0	0	153.022664054064	153.122645500116	0.0999814460519701	0.200029452331364
23997	100	205	1	77	1	2	90	1	1	3	1	22.5	157.5	0.0320266550667441	-2.74621190599385	0.2	0	0	0	153.32267397712	153.422654447844	0.0999804707244039	0.200028477003798
24072	100	206	1	78	1	2	90	1	1	2	-1	45	90	-2.09120103560204	1.84995079716206	0.2	0	0	0	153.622677561129	153.722662664251	0.09998510312289	0.20002311328426
24147	100	207	1	79	1	2	90	1	1	3	1	112.5	67.5	-2.50830835853981	0.000650262660858658	0.2	0	0	0	153.922687240411	154.022668198682	0.0999809582717717	0.200024576159194
24222	100	208	1	80	1	2	90	1	1	3	2	67.5	22.5	0.23571772515421	-2.51500563345432	0.2	0	0	0	154.222701551858	154.322680803714	0.0999792518559843	0.200033353175968
24297	100	209	1	81	1	2	90	1	1	3	2	157.5	22.5	2.65896415358049	2.68057267319315	0.2	0	0	0	154.522707574069	154.622710231459	0.100002657389268	0.20002677035518
24372.25	100	210	1	82	1	2	90	1	1	3	1	22.5	67.5	2.31560394650633	0.515236093202322	0.2	0	0	0	154.822740902891	154.922721617389	0.0999807144980878	0.200030671432614
24447	100	211	1	83	1	2	90	1	1	0	2	67.5	112.5	0.0975532907838947	0.776335568375291	0.2	0	0	0	155.122743511572	155.222724713851	0.0999812022782862	0.20002189418301
24522.25	100	212	1	84	1	2	90	1	1	0	2	157.5	22.5	-0.645222885047642	-0.385464611489502	0.2	0	0	0	155.422757335473	155.522740975954	0.0999836404807866	0.200032621622086
24597.25	100	213	1	85	1	2	90	1	1	0	1	22.5	67.5	-2.72641418639138	-2.34914503633048	0.2	0	0	0	155.72276311391	155.822744072415	0.0999809585046023	0.200022137956694
24672.25	100	214	1	86	1	2	90	1	1	0	2	67.5	22.5	-1.40519195521883	3.13865387455727	0.2	0	0	0	156.022768892115	156.122740342049	0.0999714499339461	0.200024819700047
24747.25	100	215	1	87	1	2	90	1	1	0	1	112.5	67.5	-1.16713808195234	-2.08490837626016	0.2	0	0	0	156.322754190536	156.422738806112	0.0999846155755222	0.200013848487288
24822.25	100	216	1	88	1	2	90	1	1	0	1	112.5	67.5	2.77428047928289	-0.840400066664959	0.2	0	0	0	156.622790201101	156.722746534739	0.0999563336372375	0.200051394989714
24897.25	100	217	1	89	1	2	90	1	1	0	2	157.5	22.5	-2.4051848681717	3.137414667004	0.2	0	0	0	156.922800367931	157.022780595114	0.0999802271835506	0.200053833192214
24972.25	100	218	1	90	1	2	90	1	1	0	1	22.5	157.5	2.81466815279634	-2.37439571559758	0.2	0	0	0	157.222807121463	157.32278759242	0.0999804709572345	0.200026526348665
25047.25	100	219	1	91	1	2	90	1	1	0	2	157.5	112.5	-0.14619423145738	-0.00318213621489782	0.2	0	0	0	157.52279705205	157.62279775925	0.100000707199797	0.200009459629655
25122.25	100	220	1	92	1	2	90	1	1	0	1	112.5	67.5	-0.414398480148218	-0.127813031824682	0.2	0	0	0	157.822804293362	157.922805731883	0.100001438520849	0.200006534112617
25197.25	100	221	1	93	1	2	90	1	1	0	2	67.5	22.5	-1.49369795199241	-1.5856274726548	0.2	0	0	0	158.122813241091	158.222784691025	0.0999714499339461	0.200007509207353
25272.25	100	222	1	94	1	2	90	1	1	0	1	22.5	157.5	2.90623917392106	2.66794597356095	0.2	0	0	0	158.422808779404	158.522791200783	0.0999824213795364	0.200024088378996
25347.25	100	223	1	95	1	2	90	1	1	0	1	22.5	67.5	-1.97239714728471	-0.539162506518642	0.2	0	0	0	158.722818702459	158.82279941719	0.0999807147309184	0.200027501676232
25422.25	100	224	1	96	1	2	90	1	1	0	2	157.5	22.5	0.448264304691389	-3.06878399212752	0.2	0	0	0	159.022824480664	159.122817142168	0.0999926615040749	0.200025063473731
25497.25	100	225	1	97	1	2	90	1	1	0	2	67.5	22.5	0.0675811015627876	-0.166188869111741	0.2	0	0	0	159.32283732947	159.422815849772	0.099978520302102	0.200020187301561
25572.25	100	226	1	98	1	2	90	1	1	0	1	22.5	67.5	-1.88803118117669	-3.11200870223232	0.2	0	0	0	159.62284213258	159.722859174944	0.100017042364925	0.200026282807812
25647.25	100	227	1	99	1	2	90	1	1	0	2	67.5	112.5	-1.7407073451676	1.31002748129263	0.2	0	0	0	159.922881068895	160.022834720789	0.0999536518938839	0.200021893950179
25722.25	100	228	1	100	1	2	90	1	1	0	2	67.5	112.5	3.0499941918634	2.31872232249527	0.2	0	0	0	160.222887822427	160.322852933314	0.099965110886842	0.200053101638332
25797.25	100	229	1	101	1	2	90	1	1	0	1	22.5	67.5	1.82713671356569	2.54893504787697	0.2	0	0	0	160.522868732223	160.622854323126	0.0999855909030885	0.20001579890959
25872.25	100	230	1	102	1	2	90	1	1	0	2	157.5	22.5	1.46677490915145	-2.84042293304127	0.2	0	0	0	160.822874997975	160.922856931807	0.0999819338321686	0.200020674848929
25947.25	100	231	1	103	1	2	90	1	1	0	2	157.5	22.5	2.53147188315586	1.100971609256	0.2	0	0	0	161.122915397398	161.222891967278	0.0999765698798001	0.200058465590701
26022.25	100	232	1	104	1	2	90	1	1	0	2	157.5	112.5	-2.52235399575226	-1.22694139657273	0.2	0	0	0	161.422893868992	161.522873120848	0.0999792518559843	0.200001901714131
26097.25	100	233	1	105	1	2	90	1	1	0	1	112.5	67.5	1.27890883221945	-0.171915274917205	0.2	0	0	0	161.722899159649	161.822883287678	0.0999841280281544	0.200026038801298
26172.25	100	234	1	106	1	2	90	1	1	0	1	22.5	157.5	1.57405037545477	-1.25383680784287	0.2	0	0	0	162.02290761983	162.122892235406	0.0999846155755222	0.20002433215268
26247.25	100	235	1	107	1	2	90	1	1	0	2	157.5	112.5	-1.72555405408229	-1.22514292089597	0.2	0	0	0	162.322917055339	162.422896550968	0.0999794956296682	0.200024819932878
26322.25	100	236	1	108	1	2	90	1	1	0	1	112.5	67.5	-0.269820641718769	-2.30756867042663	0.2	0	0	0	162.622923564864	162.722906473791	0.0999829089269042	0.200027013896033
26397.25	100	237	1	109	1	2	90	1	1	0	2	157.5	112.5	2.98085363384883	0.789966754187676	0.2	0	0	0	162.922934950795	163.022913227323	0.0999782765284181	0.200028477003798
26472.25	100	238	1	110	1	2	90	1	1	0	2	157.5	22.5	-1.08844687123811	-2.5851051511139	0.2	0	0	0	163.222938778577	163.322922175284	0.0999833967071027	0.20002555125393
26547.25	100	239	1	111	1	2	90	1	1	0	2	67.5	22.5	1.64838515471811	2.91659485351797	0.2	0	0	0	163.522945288336	163.622931854567	0.0999865662306547	0.200023113051429
26622.25	100	240	1	112	1	2	90	1	1	0	1	112.5	157.5	-2.10311303104684	-2.86623438955448	0.2	0	0	0	163.822958380915	163.92294226517	0.0999838842544705	0.200026526348665
26697.25	100	241	1	113	1	2	90	1	1	0	1	112.5	157.5	1.05042309398007	2.9158677963979	0.2	0	0	0	164.122969766846	164.222947555827	0.0999777889810503	0.200027501676232
26772.25	100	242	1	114	1	2	90	1	1	0	1	112.5	157.5	-1.44862239720614	-1.93801922908379	0.2	0	0	0	164.422974569956	164.522955772234	0.0999812022782862	0.200027014128864
26847.25	100	243	1	115	1	2	90	1	1	0	2	67.5	22.5	0.0552871212257458	-2.61713834047272	0.2	0	0	0	164.722979616839	164.822961306665	0.099981689825654	0.200023844605312
26922.25	100	244	1	116	1	2	90	1	1	0	2	157.5	22.5	-0.801867067839881	1.53816269213032	0.2	0	0	0	165.022991734091	165.123005606933	0.100013872841373	0.2000304274261
26997.25	100	245	1	117	1	2	90	1	1	0	2	157.5	22.5	2.32681630700817	0.194054269123671	0.2	0	0	0	165.32301896764	165.423001389019	0.0999824213795364	0.200013360707089
27072.25	100	246	1	118	1	2	90	1	1	0	1	22.5	157.5	1.53847610941573	1.68972284636442	0.2	0	0	0	165.62302742782	165.723008142551	0.0999807147309184	0.200026038801298
27147.25	100	247	1	119	1	2	90	1	1	0	2	67.5	112.5	0.0260843473782399	0.0531405408415724	0.2	0	0	0	165.923032718478	166.023014896084	0.0999821776058525	0.200024575926363
27222.25	100	248	1	120	1	2	90	1	1	0	2	157.5	112.5	1.17645173490751	0.820213655223452	0.2	0	0	0	166.223020698642	166.323004095349	0.0999833967071027	0.200005802558735
27297.25	100	249	1	121	1	2	90	1	1	0	1	22.5	67.5	-0.454507067290536	-2.62209485657133	0.2	0	0	0	166.523030621698	166.623043031665	0.100012409966439	0.200026526348665
27372.25	100	250	1	122	1	2	90	1	1	0	1	112.5	157.5	1.91184458961416	1.09233969060271	0.2	0	0	0	166.823064438067	166.92305002897	0.0999855909030885	0.200021406402811
27447.25	100	251	1	123	1	2	90	1	1	0	2	157.5	22.5	-1.52392881816716	0.0782229484899348	0.2	0	0	0	167.123054125113	167.223059708253	0.100005583139136	0.200004096142948
27522.25	100	252	1	124	1	2	90	1	1	3	2	67.5	22.5	0.277394981121744	2.90424702260882	0.2	0	0	0	167.423082821304	167.523052808363	0.0999699870590121	0.200023113051429
27597.25	100	253	1	125	1	2	90	1	1	3	1	112.5	157.5	0.538103958721165	-3.10268083518828	0.2	0	0	0	167.723088843515	167.823059805669	0.0999709621537477	0.200036035152152
27672.25	100	254	1	126	1	2	90	1	1	3	1	112.5	67.5	-0.703233842111709	-2.7124381981559	0.2	0	0	0	168.023082187399	168.123062414583	0.0999802271835506	0.200022381730378
27747.25	100	255	1	127	1	2	90	1	1	3	2	157.5	22.5	-2.84885193056456	1.10743261403197	0.2	0	0	0	168.323115759995	168.423088185256	0.0999724252615124	0.200053345412016
28609.75	100	256	2	0	2	1	0	1	1	3	2	67.5	22.5	2.24862870262761	-1.51398777140046	0.133333333333333	0	0	0	171.773175383685	171.87315634219	0.0999809585046023	-1
28689	100	257	2	1	2	1	0	1	1	3	1	112.5	67.5	1.65910240556374	-2.97000547710305	0.216666666666667	0	0	0	172.089863347122	172.189861859893	0.0999985127709806	0.216707004932687
28780.5	100	258	2	2	2	1	0	1	1	3	2	157.5	112.5	1.63364448029737	-1.37409223607184	0.266666666666667	0	0	0	172.45655202982	172.556540546473	0.0999885166529566	0.266690169926733
28855.5	100	259	2	3	2	1	0	1	1	3	2	157.5	22.5	-2.61842261704599	1.31904673932925	0.2	0	0	0	172.756561465329	172.85654534935	0.0999838840216398	0.200020918855444
28955.5	100	260	2	4	2	1	0	1	1	0	1	22.5	67.5	2.00709440982274	3.06945489772491	0.3	0	0	0	173.156570632476	173.256552810082	0.0999821776058525	0.300025283126161
29039	100	261	2	5	2	1	0	1	1	0	1	22.5	157.5	-3.0659755187405	0.825364523882335	0.233333333333333	0	0	0	173.489898845786	173.589895408135	0.0999965623486787	0.233346035704017
29118	100	262	2	6	2	1	0	1	1	0	1	112.5	157.5	0.409280552288088	2.22428276587852	0.216666666666667	0	0	0	173.806591197848	173.9065726439	0.0999814460519701	0.216695789713413
29205.5	100	263	2	7	2	1	0	1	1	0	2	67.5	112.5	-0.0766103340749082	2.02500642870528	0.25	0	0	0	174.156605741009	174.256581335794	0.0999755947850645	0.250033097108826
29272.25	100	264	2	8	2	1	0	1	1	0	1	112.5	67.5	-2.76937725446984	1.34911227009441	0.166666666666667	0	0	0	174.423257145332	174.523241029354	0.0999838840216398	0.166675809537992
29355.5	100	265	2	9	2	1	0	1	1	0	2	67.5	22.5	-0.491756638552327	-0.726462036821742	0.233333333333333	0	0	0	174.756615347229	174.856571680866	0.0999563336372375	0.233374317875132
29455.5	100	266	2	10	2	1	0	1	1	0	2	157.5	22.5	2.43231548341737	-1.55957411397963	0.3	0	0	0	175.15660037729	175.256584992865	0.0999846155755222	0.300028696423396
29505.5	100	267	2	11	2	1	0	1	1	0	2	67.5	112.5	0.780800827071658	-2.16121373301496	0.1	0	0	0	175.356607155176	175.45659640315	0.0999892479740083	0.100022162310779
29568	100	268	2	12	2	1	0	1	1	0	2	157.5	22.5	-1.16563723658692	0.295111507961408	0.15	0	0	0	175.606615383644	175.70659756125	0.0999821776058525	0.150018980493769
29630.5	100	269	2	13	2	1	0	1	1	0	2	67.5	112.5	1.97512686187925	-1.85877656547091	0.15	0	0	0	175.856648237212	175.956617248943	0.0999690117314458	0.15005067596212
29709.75	100	270	2	14	2	1	0	1	1	0	1	22.5	67.5	-0.908452669896724	1.50748418472569	0.216666666666667	0	0	0	176.173298166133	176.273278637091	0.0999804709572345	0.216680917190388
29764	100	271	2	15	2	1	0	1	1	0	1	22.5	67.5	2.49482859308029	-1.12790675962319	0.116666666666667	0	0	0	176.389977376908	176.489952483913	0.099975107004866	0.116698739817366
29830.5	100	272	2	16	2	1	0	1	1	0	2	67.5	112.5	-0.622861464488596	0.498022737177746	0.166666666666667	0	0	0	176.656669497257	176.756636314793	0.09996681753546	0.166717013344169
29893	100	273	2	17	2	1	0	1	1	0	1	112.5	67.5	-2.65400250417275	0.291878828593982	0.15	0	0	0	176.90667382488	177.006640886189	0.0999670613091439	0.150037510087714
29976.5	100	274	2	18	2	1	0	1	1	0	2	157.5	22.5	2.96392091086807	0.803767423188967	0.233333333333333	0	0	0	177.240017154487	177.339998844313	0.099981689825654	0.233376268297434
30030.5	100	275	2	19	2	1	0	1	1	0	1	112.5	157.5	-2.69507819078875	-2.16573686292784	0.116666666666667	0	0	0	177.456672471715	177.556655624649	0.0999831529334188	0.116673627402633
30101.5	100	276	2	20	2	1	0	1	1	0	1	22.5	157.5	-1.55153274147315	-1.53147542562789	0.183333333333333	0	0	0	177.740009230562	177.839993846137	0.0999846155755222	0.183353605912998
30184.75	100	277	2	21	2	1	0	1	1	0	2	67.5	112.5	1.70306508096602	1.18533972345303	0.233333333333333	0	0	0	178.073340369621	178.173353267135	0.100012897513807	0.233346523484215
30276.5	100	278	2	22	2	1	0	1	1	0	1	112.5	67.5	-2.41793032292957	-1.80235254825116	0.266666666666667	0	0	0	178.440025882795	178.540009523276	0.0999836404807866	0.266672615660354
30351.5	100	279	2	23	2	1	0	1	1	0	2	67.5	112.5	0.277315014319958	1.07751413743071	0.2	0	0	0	178.74005531054	178.840031636646	0.0999763261061162	0.200045787263662
30422.25	100	280	2	24	2	1	0	1	1	0	1	112.5	67.5	2.25601148363337	2.92195383563245	0.183333333333333	0	0	0	179.023386461893	179.123385218438	0.0999987565446645	0.183354825247079
30493	100	281	2	25	2	1	0	1	1	0	1	112.5	157.5	0.565235712061793	-0.696614282811361	0.183333333333333	0	0	0	179.306740043685	179.406722952612	0.0999829089269042	0.183354825247079
30559.75	100	282	2	26	2	1	0	1	1	0	2	157.5	22.5	-0.954252649179	2.90068469118356	0.166666666666667	0	0	0	179.573417535517	179.673381183296	0.0999636477790773	0.16669458290562
30647.25	100	283	2	27	2	1	0	1	1	0	2	157.5	112.5	1.62116717752193	0.717985768873728	0.25	0	0	0	179.923425739631	180.023385974346	0.099960234714672	0.250044556334615
30734.75	100	284	2	28	2	1	0	1	1	0	1	112.5	157.5	2.04575743369877	2.79221962191778	0.25	0	0	0	180.2734241914	180.373391496483	0.0999673050828278	0.25003821705468
30809.75	100	285	2	29	2	1	0	1	1	0	1	22.5	157.5	0.498697897505406	0.164821411405196	0.2	0	0	0	180.573424605886	180.673404101515	0.0999794956296682	0.200033109402284
30880.5	100	286	2	30	2	1	0	1	1	3	2	157.5	22.5	0.797413983235828	1.58836516844586	0.183333333333333	0	0	0	180.856758682756	180.95674256701	0.0999838842544705	0.183354581240565
30968	100	287	2	31	2	1	0	1	1	3	2	67.5	112.5	-1.11613843416222	1.14698550659384	0.25	0	0	0	181.206788829993	181.306778565515	0.0999897355213761	0.250046262983233
31034.75	100	288	2	32	2	1	0	1	1	3	2	67.5	22.5	-0.581448468248821	-1.91490793300082	0.166666666666667	0	0	0	181.47344535403	181.573448499199	0.100003145169467	0.166666788514704
31097.25	100	289	2	33	2	1	0	1	1	1	-1	0	135	3.09046565981362	0.112513695320903	0.15	0	0	0	181.723457239801	181.823434053455	0.099976813653484	0.150008740602061
31193	100	290	2	34	2	1	0	1	1	3	1	22.5	157.5	2.9646218653414	0.508378235420765	0.283333333333333	0	0	0	182.10680031334	182.206778102322	0.0999777889810503	0.283366259885952
31268	100	291	2	35	2	1	0	1	1	3	1	112.5	67.5	-3.13088361820981	-0.228449617101632	0.2	1	0.675293382257223	1	182.406803409802	182.506787293823	0.0999838840216398	0.200025307480246
31368.25	100	292	2	36	2	1	0	1	1	3	2	157.5	112.5	-1.9083937856653	1.00509866847054	0.3	0	0	0	182.806834763614	182.906814259244	0.0999794956296682	0.300047469791025
31422.25	100	293	2	37	2	1	0	1	1	3	1	22.5	67.5	-1.72615786849245	2.57050376325129	0.116666666666667	0	0	0	183.023502027616	183.12349176337	0.0999897357542068	0.116687768371776
31497.25	100	294	2	38	2	1	0	1	1	0	2	67.5	22.5	1.84027501738964	1.85332933003855	0.2	0	0	0	183.32350171078	183.423487057677	0.0999853468965739	0.200009947409853
31555.75	100	295	2	39	2	1	0	1	1	0	2	67.5	22.5	-1.88114110910798	1.96187065415981	0.133333333333333	0	0	0	183.556857255055	183.656835287809	0.0999780327547342	0.133370197378099
31655.75	100	296	2	40	2	1	0	1	1	0	1	112.5	157.5	-2.07740614345082	-2.24027379069077	0.3	0	0	0	183.956867641304	184.056848599808	0.0999809585046023	0.300032353494316
31714	100	297	2	41	2	1	0	1	1	0	2	157.5	112.5	1.67060086221012	1.27641993103369	0.133333333333333	0	0	0	184.19020368089	184.290189271793	0.0999855909030885	0.13335508108139
31793.25	100	298	2	42	2	1	0	1	1	0	2	67.5	22.5	-2.08052181434861	0.800380113965332	0.216666666666667	0	0	0	184.50688823103	184.606864069588	0.0999758385587484	0.216698959236965
31884.75	100	299	2	43	2	1	0	1	1	0	2	67.5	112.5	2.99944450861277	2.75416108645746	0.266666666666667	0	0	0	184.873557409039	184.973539830418	0.0999824213795364	0.266693339450285
31943.25	100	300	2	44	2	1	0	1	1	0	1	22.5	67.5	-0.280389525480928	-3.12557315097749	0.133333333333333	0	0	0	185.106896618148	185.206877576653	0.0999809585046023	0.133356787730008
32034.75	100	301	2	45	2	1	0	1	1	0	1	22.5	67.5	2.50436506431591	-2.05821401711435	0.266666666666667	0	0	0	185.473555556033	185.573561383178	0.100005827145651	0.266677979379892
32118.25	100	302	2	46	2	1	0	1	1	0	1	112.5	67.5	2.00884387113519	2.98851077357923	0.233333333333333	0	0	0	185.806915952358	185.90687911259	0.0999631602317095	0.233354569179937
32172.25	100	303	2	47	2	1	0	1	1	0	2	67.5	22.5	-1.83993227379205	-0.801353439037392	0.116666666666667	0	0	0	186.023569319164	186.123550277669	0.0999809585046023	0.116690206574276
32222.25	100	304	2	48	2	1	0	1	1	0	1	112.5	157.5	1.79472891423038	1.29201902556228	0.1	0	0	0	186.223574634176	186.323555348907	0.0999807147309184	0.100024356506765
32314	100	305	2	49	2	1	0	1	1	0	2	157.5	112.5	-0.534515306851164	0.576541998106249	0.266666666666667	0	0	0	186.590246737702	186.69022842776	0.0999816900584847	0.266691388795152
32372.25	100	306	2	50	2	1	0	1	1	0	1	22.5	157.5	-1.74573384452082	-0.64096527995727	0.133333333333333	0	0	0	186.823613741202	186.923573732143	0.0999599909409881	0.133385313441977
32426.5	100	307	2	51	2	1	0	1	1	0	2	157.5	112.5	-2.85224505520999	-0.38564446878088	0.116666666666667	0	0	0	187.040263938485	187.140244409442	0.0999804709572345	0.116690206341445
32518.25	100	308	2	52	2	1	0	1	1	0	1	22.5	157.5	1.27675620946896	0.390520728878262	0.266666666666667	0	0	0	187.406943844166	187.506922608241	0.0999787640757859	0.266699434723705
32605.75	100	309	2	53	2	1	0	1	1	0	2	67.5	22.5	0.383554917798372	3.04863501911099	0.25	0	0	0	187.756948147202	187.85692983726	0.0999816900584847	0.250025538960472
32684.75	100	310	2	54	2	1	0	1	1	0	2	67.5	112.5	-1.2367145855074	0.209724983549172	0.216666666666667	0	0	0	188.073621725896	188.173605610151	0.0999838842544705	0.216691888635978
32776.5	100	311	2	55	2	1	0	1	1	0	2	67.5	22.5	2.09106593064659	1.82352420059552	0.266666666666667	0	0	0	188.440296511399	188.540279664332	0.0999831529334188	0.266690901247784
32851.5	100	312	2	56	2	1	0	1	1	0	1	22.5	67.5	-1.90355437971281	-1.23489549228229	0.2	0	0	0	188.740337398369	188.840312749147	0.0999753507785499	0.200057734036818
32901.5	100	313	2	57	2	1	0	1	1	0	1	112.5	67.5	-0.347176292579843	1.33035704831085	0.1	0	0	0	188.940332961036	189.04031928326	0.0999863222241402	0.100020211888477
32984.75	100	314	2	58	2	1	0	1	1	0	1	112.5	157.5	-2.59329958569059	0.657482882465244	0.233333333333333	0	0	0	189.273676534416	189.373657249147	0.0999807147309184	0.233357251156121
33059.75	100	315	2	59	2	1	0	1	1	0	2	157.5	22.5	-0.939982068486323	1.52956012169692	0.2	0	0	0	189.573688164121	189.673651812132	0.0999636480119079	0.200030914973468
33159.75	100	316	2	60	2	1	0	1	1	0	1	22.5	157.5	2.41704413402287	2.38456944147554	0.3	0	0	0	189.97367246286	190.073654884007	0.0999824211467057	0.300020650727674
33226.5	100	317	2	61	2	1	0	1	1	0	2	157.5	112.5	0.000473829069469911	-2.64010185881641	0.166666666666667	0	0	0	190.240348491818	190.340326524572	0.0999780327547342	0.166693607810885
33280.75	100	318	2	62	2	1	0	1	1	0	1	112.5	67.5	-2.17669846117626	2.93464504998679	0.116666666666667	0	0	0	190.457018681336	190.557035479927	0.100016798591241	0.116692156763747
33334.75	100	319	2	63	2	1	0	1	1	0	2	157.5	22.5	-1.65529647747306	0.69230767336574	0.116666666666667	0	0	0	190.673701792955	190.773686408764	0.0999846158083528	0.116666313027963
33405.75	100	320	2	64	2	1	0	1	1	0	2	157.5	112.5	0.906955256022025	-1.50924877876043	0.183333333333333	0	0	0	190.95703416341	191.057017072337	0.0999829089269042	0.183347754646093
33472.25	100	321	2	65	2	1	0	1	1	0	1	112.5	157.5	-1.39655475953285	-0.223958278695309	0.166666666666667	0	0	0	191.223706535064	191.323716750834	0.100010215770453	0.166689462726936
33539	100	322	2	66	2	1	0	1	1	0	1	22.5	67.5	2.4326654862775	-2.53306835485899	0.166666666666667	0	0	0	191.490403287811	191.590386928292	0.0999836404807866	0.166686536977068
33601.5	100	323	2	67	2	1	0	1	1	0	2	157.5	112.5	-2.76104548774549	-1.68940216645493	0.15	0	0	0	191.740390305175	191.840368825477	0.099978520302102	0.150003376882523
33668.25	100	324	2	68	2	1	0	1	1	0	2	67.5	22.5	2.31786983920526	2.12233112194199	0.166666666666667	0	0	0	192.007062189281	192.107042660005	0.0999804707244039	0.16669336380437
33730.75	100	325	2	69	2	1	0	1	1	0	1	22.5	157.5	0.766177025560066	1.3266175856652	0.15	0	0	0	192.257067248225	192.357049669605	0.0999824213795364	0.150024588219821
33826.5	100	326	2	70	2	1	0	1	1	0	2	67.5	22.5	2.02465299952324	2.30156184885634	0.283333333333333	0	0	0	192.640415685717	192.740391524043	0.0999758383259177	0.283366016112268
33922.25	100	327	2	71	2	1	0	1	1	0	1	22.5	67.5	-0.915982449979879	-2.12142493490663	0.283333333333333	0	0	0	193.023754370632	193.123745081481	0.0999907108489424	0.283362846588716
33972.25	100	328	2	72	2	1	0	1	1	0	2	67.5	22.5	-2.70722364289293	-2.46189640322318	0.1	0	0	0	193.223757978994	193.323738449719	0.0999804707244039	0.100012897513807
34034.75	100	329	2	73	2	1	0	1	1	0	1	112.5	157.5	-2.0598760487205	-0.757991424687876	0.15	0	0	0	193.473762306618	193.573746434646	0.0999841280281544	0.15002385689877
34122.25	100	330	2	74	2	1	0	1	1	0	1	22.5	157.5	0.796797390564932	-0.0266682610763049	0.25	0	0	0	193.823800499318	193.923765853979	0.0999653546605259	0.25005406467244
34222.25	100	331	2	75	2	1	0	1	1	0	2	67.5	112.5	-2.97879826608178	1.32463947826624	0.3	0	0	0	194.223834779114	194.323796964251	0.0999621851369739	0.300068925134838
34322.25	100	332	2	76	2	1	0	1	1	0	2	67.5	22.5	-2.44928079758073	-1.26721325129685	0.3	0	0	0	194.623821272049	194.723805643851	0.0999843718018383	0.300024307798594
34376.5	100	333	2	77	2	1	0	1	1	0	1	22.5	157.5	1.77366665464641	1.49086533278148	0.116666666666667	0	0	0	194.840497069294	194.940478027798	0.0999809585046023	0.116691425442696
34434.75	100	334	2	78	2	1	0	1	1	0	1	112.5	157.5	2.3752116812775	0.529164994767977	0.133333333333333	0	0	0	195.073816285934	195.173791880719	0.0999755947850645	0.133338258136064
34509.75	100	335	2	79	2	1	0	1	1	0	1	112.5	67.5	2.23755287197591	-1.32790236531181	0.2	0	0	0	195.373842056608	195.473805217072	0.0999631604645401	0.200050175888464
34609.75	100	336	2	80	2	1	0	1	1	0	1	112.5	67.5	2.12013443056506	1.80800347457014	0.3	0	0	0	195.773840008769	195.873815603321	0.0999755945522338	0.300034791696817
34705.75	100	337	2	81	2	1	0	1	1	0	1	22.5	157.5	0.345810846506719	-2.67864246038794	0.283333333333333	0	0	0	196.157178937458	196.257154776016	0.0999758385587484	0.283363334136084
34780.75	100	338	2	82	2	1	0	1	1	0	1	112.5	157.5	2.35787730552123	0.579341020696932	0.2	0	0	0	196.457198856631	196.557186885737	0.0999880291055888	0.200044080615044
34864	100	339	2	83	2	1	0	1	1	3	1	112.5	157.5	1.24145902240717	-1.96162845711461	0.233333333333333	0	0	0	196.790553401457	196.890531921759	0.099978520302102	0.233366515720263
34951.5	100	340	2	84	2	1	0	1	1	3	2	67.5	22.5	0.360633919885697	-2.87391277006818	0.25	0	0	0	197.140580378938	197.240540369879	0.0999599909409881	0.250048457179219
35001.5	100	341	2	85	2	1	0	1	1	3	1	22.5	157.5	-0.466907605505968	-0.136049723651785	0.1	0	0	0	197.340563507518	197.440529105952	0.0999655984342098	0.100023137638345
35097.5	100	342	2	86	2	1	0	1	1	2	-1	45	0	-2.98860488027223	0.124652014195917	0.283333333333333	0	0	0	197.723886588588	197.823864377569	0.0999777889810503	0.283357482636347
35172.5	100	343	2	87	2	1	0	1	1	3	2	157.5	22.5	-2.57844496343267	0.707084521389295	0.2	0	0	0	198.023892123019	198.123873569071	0.0999814460519701	0.200027745449916
35264	100	344	2	88	2	1	0	1	1	3	2	67.5	112.5	-1.57290992732747	-0.783890170516908	0.266666666666667	0	0	0	198.390570078045	198.490555181401	0.0999851033557206	0.266696508973837
35364	100	345	2	89	2	1	0	1	1	3	1	22.5	67.5	-0.245639148791991	2.69865553398192	0.3	0	0	0	198.79060094431	198.890566542745	0.0999655984342098	0.300045762909576
35430.75	100	346	2	90	2	1	0	1	1	3	2	157.5	112.5	-2.38107742035946	1.7853582387325	0.166666666666667	0	0	0	199.057255761931	199.157236232655	0.0999804707244039	0.166689219186082
35526.5	100	347	2	91	2	1	0	1	1	0	1	112.5	67.5	2.95603719425627	-2.1742405428511	0.283333333333333	0	0	0	199.440594203072	199.540577599546	0.099983396474272	0.283357970416546
35614	100	348	2	92	2	1	0	1	1	0	2	157.5	22.5	0.480638744771356	-3.11167898069241	0.25	0	0	0	199.79060972156	199.890586535214	0.099976813653484	0.25003212201409
35664	100	349	2	93	2	1	0	1	1	0	2	157.5	22.5	1.51042947361899	2.89394528726536	0.1	0	0	0	199.990638929885	200.090602090349	0.0999631604645401	0.100052394671366
35735	100	350	2	94	2	1	0	1	1	0	1	22.5	67.5	2.46745931865392	-0.558704029066359	0.183333333333333	0	0	0	200.27397788316	200.373957378557	0.0999794953968376	0.183375792810693
35793.25	100	351	2	95	2	1	0	1	1	0	2	157.5	22.5	-1.72011149900482	-2.48219863238396	0.133333333333333	0	0	0	200.507304170402	200.607278058305	0.0999738879036158	0.133346791844815
35889	100	352	2	96	2	1	0	1	1	0	2	67.5	112.5	2.4262542634442	-2.02501034900289	0.283333333333333	0	0	0	200.890639685793	200.990622350946	0.0999826651532203	0.283361627487466
35968.25	100	353	2	97	2	1	0	1	1	0	1	112.5	67.5	2.8779944083876	1.25769116216912	0.216666666666667	0	0	0	201.207339108223	201.307320310501	0.0999812022782862	0.216716757277027
36018.25	100	354	2	98	2	1	0	1	1	0	1	22.5	67.5	-1.46105625981391	-2.0319272687038	0.1	0	0	0	201.40734003461	201.507305145497	0.099965110886842	0.100019724108279
36076.5	100	355	2	99	2	1	0	1	1	0	1	112.5	67.5	-2.35320365513013	-0.797490381482941	0.133333333333333	0	0	0	201.640656569507	201.740641916636	0.0999853471294045	0.133351424010471
36155.75	100	356	2	100	2	1	0	1	1	0	1	22.5	157.5	1.88514665929903	1.1111868630258	0.216666666666667	0	0	0	201.957336974796	202.057344996138	0.100008021341637	0.21669505815953
36230.75	100	357	2	101	2	1	0	1	1	0	2	157.5	112.5	2.44897729066859	-0.928046303107626	0.2	0	0	0	202.257346897852	202.357327125035	0.0999802271835506	0.200001901714131
36310	100	358	2	102	2	1	0	1	1	0	2	157.5	112.5	1.87554238526798	0.964635163150178	0.216666666666667	0	0	0	202.574038274586	202.674017526442	0.0999792518559843	0.216711149550974
36393.25	100	359	2	103	2	1	0	1	1	0	1	22.5	67.5	-0.576075651024769	2.81713703459609	0.233333333333333	0	0	0	202.907382335747	203.007348909276	0.0999665735289454	0.233364809304476
36489	100	360	2	104	2	1	0	1	1	0	2	157.5	22.5	0.641804743489355	1.8405898200535	0.283333333333333	0	0	0	203.290731260553	203.390707830433	0.0999765698798001	0.283382351277396
36580.75	100	361	2	105	2	1	0	1	1	0	1	112.5	157.5	-2.42608392295634	0.805612383756779	0.266666666666667	0	0	0	203.657382152742	203.757366036996	0.0999838842544705	0.266674322308972
36676.5	100	362	2	106	2	1	0	1	1	0	2	157.5	112.5	-1.66818610502289	0.789326836911038	0.283333333333333	0	0	0	204.040719131008	204.140698382864	0.0999792518559843	0.283353094011545
36730.75	100	363	2	107	2	1	0	1	1	0	2	67.5	112.5	-0.509754536565849	-1.19648449329029	0.116666666666667	0	0	0	204.257396635134	204.35737588699	0.0999792518559843	0.116698252269998
36818.25	100	364	2	108	2	1	0	1	1	0	1	112.5	67.5	1.53767418391373	0.882229204925157	0.25	0	0	0	204.607404595474	204.707384578651	0.099979983177036	0.250028708484024
36885	100	365	2	109	2	1	0	1	1	0	1	22.5	157.5	-2.58373133430836	0.936895283994377	0.166666666666667	0	0	0	204.874077211134	204.97405890096	0.099981689825654	0.166692632483318
36955.75	100	366	2	110	2	1	0	1	1	0	2	67.5	22.5	2.69100379565112	0.546799655114286	0.183333333333333	0	0	0	205.157440301497	205.257405899931	0.0999655984342098	0.183381400536746
37055.75	100	367	2	111	2	1	0	1	1	0	2	157.5	112.5	-2.9542247832086	-0.0582996341165023	0.3	0	0	0	205.557434108574	205.657411653781	0.0999775452073663	0.300028208643198
37139	100	368	2	112	2	1	0	1	1	0	2	157.5	112.5	2.95103749371049	1.58029700847194	0.233333333333333	0	0	0	205.890770611586	205.990753032733	0.0999824211467057	0.233358957804739
37210	100	369	2	113	2	1	0	1	1	0	2	157.5	22.5	-1.65276663109039	-1.85689018625279	0.183333333333333	0	0	0	206.174114197027	206.274124168791	0.100009971763939	0.183361164294183
37305.75	100	370	2	114	2	1	0	1	1	0	1	112.5	157.5	2.00344194820812	1.34107431088551	0.283333333333333	0	0	0	206.557480920106	206.657454076689	0.0999731565825641	0.283356751315296
37393.25	100	371	2	115	2	1	0	1	1	0	1	22.5	67.5	1.99835082011463	3.00644322084564	0.25	0	0	0	206.907489855774	207.007458867505	0.0999690117314458	0.25003577908501
37451.5	100	372	2	116	2	1	0	1	1	0	2	67.5	112.5	2.85520639559149	-2.91603784314459	0.133333333333333	0	0	0	207.140802977141	207.240786861395	0.0999838842544705	0.1333441096358
37501.5	100	373	2	117	2	1	0	1	1	0	2	157.5	112.5	-0.18729199873706	-1.55766119769095	0.1	0	0	0	207.340808779933	207.440800709883	0.0999919299501926	0.100021918537095
37564	100	374	2	118	2	1	0	1	1	0	1	22.5	67.5	1.24906765922684	3.05210199931061	0.15	0	0	0	207.590821884573	207.690806012601	0.0999841280281544	0.150021174689755
37626.5	100	375	2	119	2	1	0	1	1	0	2	67.5	22.5	-1.30666901532565	-2.62348763476778	0.15	0	0	0	207.840822555125	207.940834965091	0.100012409966439	0.150016542524099
37718.25	100	376	2	120	2	1	0	1	1	0	2	157.5	22.5	2.09140851370413	1.9967604485794	0.266666666666667	0	0	0	208.207531474065	208.307511213468	0.0999797394033521	0.266696508973837
37768.25	100	377	2	121	2	1	0	1	1	0	1	22.5	157.5	-2.45763389452989	0.508718385258272	0.1	0	0	0	208.407541177701	208.50750165619	0.0999604784883559	0.100029964232817
37847.5	100	378	2	122	2	1	0	1	1	0	2	157.5	22.5	2.41112228251025	-2.70460397382243	0.216666666666667	1	0	0	208.724181110505	208.824164263206	0.0999831527005881	0.216679454315454
37918.25	100	379	2	123	2	1	0	1	1	0	2	67.5	112.5	0.580058654950331	0.814611462340928	0.183333333333333	0	0	0	209.007551515242	209.107518820325	0.0999673050828278	0.183387252036482
37985	100	380	2	124	2	1	0	1	1	3	1	22.5	157.5	-2.75260259490602	-3.09357114456445	0.166666666666667	0	0	0	209.274220961146	209.374203626299	0.0999826651532203	0.166702140821144
38047.5	100	381	2	125	2	1	0	1	1	3	2	67.5	112.5	2.77289106279242	2.19480120218854	0.15	0	0	0	209.524207490729	209.624188449234	0.0999809585046023	0.150003864429891
38101.5	100	382	2	126	2	1	0	1	1	3	1	22.5	67.5	-1.1560569898839	-1.24176964492587	0.116666666666667	0	0	0	209.740905718645	209.840856688563	0.0999509699176997	0.116717269411311
38172.5	100	383	2	127	2	1	0	1	1	3	1	112.5	157.5	-2.7134618748594	2.6637750044396	0.183333333333333	0	0	0	210.024218340404	210.124197348254	0.0999790078494698	0.183361651841551
38997.5	100	384	3	0	1	1	0	2	1	3	1	112.5	157.5	1.0297458597357	-1.7116947614936	0.2	0	0	0	213.3243057949	213.424314791337	0.100008996436372	-1
39072.5	100	385	3	1	1	1	0	2	1	3	1	112.5	67.5	2.55093962730481	1.43870409747831	0.2	0	0	0	213.624334491091	213.724321788643	0.0999872975517064	0.200019699754193
39147.5	100	386	3	2	1	1	0	2	1	3	2	67.5	22.5	0.607756437879821	0.080408674984108	0.2	0	0	0	213.924353678944	214.024332687026	0.0999790080823004	0.200031890301034
39222.5	100	387	3	3	1	1	0	2	1	3	2	157.5	22.5	2.91226721584277	-1.85098207660465	0.2	0	0	0	214.224358725827	214.324335783487	0.0999770576599985	0.200026038801298
39297.5	100	388	3	4	1	1	0	2	1	0	2	67.5	22.5	-0.781952092368436	2.46246298973546	0.2	0	0	0	214.524351094617	214.624329371145	0.0999782765284181	0.200015311129391
39372.5	100	389	3	5	1	1	0	2	1	0	2	157.5	112.5	-1.52095553868915	0.649906222174176	0.2	0	0	0	214.824343463406	214.924322715262	0.0999792518559843	0.200014092260972
39447.5	100	390	3	6	1	1	0	2	1	0	1	112.5	67.5	1.54015020813891	2.66173624108445	0.2	0	0	0	215.124367527431	215.224361651577	0.0999941241461784	0.200044812168926
39522.5	100	391	3	7	1	1	0	2	1	0	1	22.5	157.5	-0.661053099494615	-1.79110800307313	0.2	0	0	0	215.42438354576	215.524362066062	0.099978520302102	0.20002189418301
39597.5	100	392	3	8	1	1	0	2	1	0	2	157.5	112.5	1.2506502397021	-1.63883910469363	0.2	0	0	0	215.724392981036	215.824368819594	0.0999758385587484	0.200030914973468
39672.5	100	393	3	9	1	1	0	2	1	0	1	22.5	67.5	2.58036172471629	0.757543299099186	0.2	0	0	0	216.024374134606	216.12434851029	0.0999743756838143	0.200005315011367
39747.5	100	394	3	10	1	1	0	2	1	0	2	157.5	112.5	-3.02045980309644	-2.01386609295943	0.2	0	0	0	216.324384789215	216.424396711402	0.100011922186241	0.200036278925836
39822.5	100	395	3	11	1	1	0	2	1	0	1	112.5	67.5	-0.372639757548069	2.18972899832054	0.2	0	0	0	216.624422018882	216.724405171582	0.0999831527005881	0.200025307480246
39897.5	100	396	3	12	1	1	0	2	1	0	2	157.5	112.5	0.291046727952294	-2.08022029329702	0.2	0	0	0	216.924403416226	217.024387544254	0.0999841280281544	0.199998244643211
39972.5	100	397	3	13	1	1	0	2	1	0	2	67.5	22.5	-2.50681681188622	-2.67382320835297	0.2	0	0	0	217.224409925984	217.32438869006	0.0999787640757859	0.200022381730378
40047.5	100	398	3	14	1	1	0	2	1	0	1	112.5	67.5	-2.43132781021308	-1.37169274066475	0.2	0	0	0	217.524412534665	217.624398856889	0.0999863222241402	0.200023844605312
40122.5	100	399	3	15	1	1	0	2	1	0	2	157.5	22.5	2.14956708957742	2.89840675585469	0.2	0	0	0	217.824424651917	217.924407560844	0.0999829089269042	0.200025795027614
40197.5	100	400	3	16	1	1	0	2	1	0	1	22.5	157.5	-0.0617470336195884	-0.301107846703812	0.2	0	0	0	218.12448284938	218.224446984939	0.0999641355592757	0.200075288536027
40272.5	100	401	3	17	1	1	0	2	1	0	2	67.5	112.5	-1.52769820921061	2.77112262602662	0.2	0	0	0	218.424443766708	218.524425700307	0.0999819335993379	0.199996781768277
40347.5	100	402	3	18	1	1	0	2	1	0	2	67.5	22.5	0.57916169655689	3.05283051065389	0.2	0	0	0	218.724455640186	218.82443367294	0.0999780327547342	0.200029939878732
40422.5	100	403	3	19	1	1	0	2	1	0	1	22.5	157.5	1.95309339212226	-1.95545891379167	0.2	0	0	0	219.024457761319	219.124452129239	0.0999943679198623	0.200024088378996
40497.5	100	404	3	20	1	1	0	2	1	0	2	67.5	22.5	0.402673930727884	1.39278493679594	0.2	0	0	0	219.324468415696	219.424452543724	0.0999841280281544	0.200016286456957
40572.5	100	405	3	21	1	1	0	2	1	0	2	157.5	22.5	-2.53079252335559	2.76755403129174	0.2	0	0	0	219.624472487485	219.72445344599	0.0999809585046023	0.200019943760708
40647.5	100	406	3	22	1	1	0	2	1	0	1	112.5	157.5	-0.137981272027062	0.715272394210052	0.2	0	0	0	219.92448119144	220.024468488991	0.0999872975517064	0.200027745449916
40722.5	100	407	3	23	1	1	0	2	1	0	2	67.5	22.5	1.88065218733487	0.423886971399284	0.2	0	0	0	220.224489895394	220.324475486297	0.0999855909030885	0.200021406402811
40797.5	100	408	3	24	1	1	0	2	1	0	1	112.5	67.5	-0.112110385578975	-1.03046860891397	0.2	0	0	0	220.524494698504	220.624481020728	0.0999863222241402	0.200019212206826
40872.5	100	409	3	25	1	1	0	2	1	0	1	112.5	67.5	1.55821742134959	2.21118994659231	0.2	0	0	0	220.824502427364	220.92451971327	0.100017285905778	0.200021406635642
40947.5	100	410	3	26	1	1	0	2	1	0	1	22.5	67.5	2.94825236203541	0.756818329131532	0.2	0	0	0	221.124550384702	221.224524760153	0.0999743754509836	0.200030671432614
41022.5	100	411	3	27	1	1	0	2	1	0	2	67.5	22.5	0.0178610750645283	-0.77595447656102	0.2	0	0	0	221.424551774282	221.524531513685	0.0999797394033521	0.200027014128864
41097.5	100	412	3	28	1	1	0	2	1	0	1	22.5	67.5	0.705661370559396	-2.91002936149279	0.2	0	0	0	221.724532927852	221.824515836779	0.0999829089269042	0.200001414166763
41172.5	100	413	3	29	1	1	0	2	1	0	2	157.5	112.5	1.35763450196629	1.10899114100445	0.2	0	0	0	222.024542119354	222.124558186624	0.10001606727019	0.200026282574981
41247.5	100	414	3	30	1	1	0	2	1	0	1	22.5	67.5	-0.0475095892769213	-2.99427023278144	0.2	0	0	0	222.32454960444	222.424534220016	0.0999846155755222	0.199991417815909
41322.5	100	415	3	31	1	1	0	2	1	0	2	157.5	22.5	2.30235075217354	1.05796475324866	0.2	0	0	0	222.624592685606	222.724565110635	0.0999724250286818	0.200058465590701
41397.5	100	416	3	32	1	1	0	2	1	0	2	157.5	22.5	-3.00515702756988	-0.636927501484763	0.2	0	0	0	222.92459480674	223.024573327042	0.099978520302102	0.200029696105048
41472.5	100	417	3	33	1	1	0	2	1	0	1	22.5	67.5	2.40300001290269	1.94984705617018	0.2	0	0	0	223.224598878296	223.324583981652	0.0999851033557206	0.20002555125393
41547.5	100	418	3	34	1	1	0	2	1	0	2	67.5	22.5	-1.63563184250977	-2.62594243818263	0.2	0	0	0	223.524602218531	223.62458707788	0.0999848593492061	0.200018236879259
41622.5	100	419	3	35	1	1	0	2	1	0	2	157.5	112.5	2.78362261160402	-2.08964577779779	0.2	0	0	0	223.824617017759	223.92457359517	0.0999565774109215	0.200029939878732
41697.5	100	420	3	36	1	1	0	2	1	3	2	157.5	112.5	-0.844021905802066	-2.2466709802768	0.2	0	0	0	224.124631816987	224.224607899319	0.0999760823324323	0.200058221817017
41772.5	100	421	3	37	1	1	0	2	1	3	2	157.5	22.5	0.792280181402427	-0.854588932757384	0.2	0	0	0	224.424610288581	224.524588565109	0.0999782765284181	0.200002389261499
41847.5	100	422	3	38	1	1	0	2	1	3	1	112.5	157.5	-0.33938333895278	-2.63654204273224	0.2	0	0	0	224.724609971745	224.824593855767	0.0999838840216398	0.200021406635642
41922.5	100	423	3	39	1	1	0	2	1	2	-1	45	0	0.491061674488398	2.76029474097117	0.2	0	0	0	225.02462233277	225.124636205612	0.100013872841373	0.200028477003798
41997.5	100	424	3	40	1	1	0	2	1	3	1	112.5	67.5	-1.1634335850898	-2.03862402503313	0.2	0	0	0	225.324654930271	225.424637107644	0.0999821773730218	0.200018724659458
42072.5	100	425	3	41	1	1	0	2	1	3	1	22.5	157.5	-1.3312184831217	-1.66779792648417	0.2	0	0	0	225.624669973273	225.72463215841	0.0999621851369739	0.2000328656286
42147.5	100	426	3	42	1	1	0	2	1	3	1	22.5	67.5	-0.796153400576701	3.07944571152215	0.2	0	0	0	225.924672825728	226.024655490881	0.0999826651532203	0.200040667317808
42222.5	100	427	3	43	1	1	0	2	1	3	2	67.5	112.5	-1.90245821080668	-2.49989504859602	0.2	0	0	0	226.224653735524	226.324637375772	0.0999836402479559	0.199998244643211
42297.5	100	428	3	44	1	1	0	2	1	0	1	112.5	157.5	-2.09652338227166	2.17353036522998	0.2	0	0	0	226.524660976604	226.624646079959	0.0999851033557206	0.200023600831628
42372.5	100	429	3	45	1	1	0	2	1	0	1	22.5	67.5	-3.13969500298816	-2.89484882537051	0.2	0	0	0	226.824662853964	226.924663073383	0.100000219419599	0.200016774004325
42447.5	100	430	3	46	1	1	0	2	1	0	1	22.5	157.5	-0.560455480060106	-1.87085820381441	0.2	0	0	0	227.124683992239	227.224660074571	0.0999760823324323	0.200020918855444
42522.5	100	431	3	47	1	1	0	2	1	0	2	67.5	22.5	1.96730644304376	3.03225222555964	0.2	0	0	0	227.424688551575	227.524672191823	0.0999836402479559	0.200028477003798
42597.5	100	432	3	48	1	1	0	2	1	0	2	157.5	22.5	2.10377703731448	-0.358116185354434	0.2	0	0	0	227.724693598459	227.824697231175	0.100003632716835	0.200021406635642
42672.5	100	433	3	49	1	1	0	2	1	0	2	67.5	22.5	0.67391295355574	1.31824037749853	0.2	0	0	0	228.024704252835	228.124684479786	0.09998022695072	0.200007021659985
42747.5	100	434	3	50	1	1	0	2	1	0	1	112.5	157.5	-0.698178485135199	-1.26259297929401	0.2	0	0	0	228.324753185501	228.424722928554	0.0999697430524975	0.200068705715239
42822.5	100	435	3	51	1	1	0	2	1	0	1	22.5	67.5	1.88234944105033	0.622462408310444	0.2	0	0	0	228.624729950447	228.724728950765	0.0999990003183484	0.200007021892816
42897.5	100	436	3	52	1	1	0	2	1	0	1	112.5	157.5	-1.72662131844163	-2.87432390160298	0.2	0	0	0	228.924730608705	229.024707909906	0.0999773012008518	0.200001657940447
42972.5	100	437	3	53	1	1	0	2	1	0	1	22.5	67.5	1.87926685039681	-1.60492317343394	0.2	0	0	0	229.22473638691	229.324723928235	0.0999875413253903	0.200028477003798
43047.5	100	438	3	54	1	1	0	2	1	0	1	22.5	67.5	-0.659034351550655	1.04980961210309	0.2	0	0	0	229.52474655374	229.624753599986	0.100007046246901	0.200022625504062
43122.5	100	439	3	55	1	1	0	2	1	0	2	157.5	112.5	-2.9032447691994	1.34238419582847	0.2	0	0	0	229.824780126335	229.924746943871	0.09996681753546	0.200026526348665
43197.5	100	440	3	56	1	1	0	2	1	3	2	157.5	22.5	-1.51382867290413	-0.261338660093804	0.2	0	0	0	230.124788586516	230.224768569926	0.0999799834098667	0.200041642645374
43272.5	100	441	3	57	1	1	0	2	1	3	1	112.5	157.5	1.23136917514316	1.69102286200624	0.2	0	0	0	230.424779980211	230.524778492982	0.0999985127709806	0.200011410284787
43347.5	100	442	3	58	1	1	0	2	1	3	1	22.5	157.5	-1.61758935542877	-2.03624399259096	0.2	0	0	0	230.72480501933	230.824792560656	0.0999875413253903	0.200026526348665
43422.5	100	443	3	59	1	1	0	2	1	1	-1	0	135	1.20753189949947	2.2050728781888	0.2	0	0	0	231.024790805299	231.124779077945	0.0999882726464421	0.199998244643211
43497.5	100	444	3	60	1	1	0	2	1	3	2	157.5	112.5	0.699987098909114	-2.02133036181552	0.2	0	0	0	231.32479633973	231.424807774369	0.100011434638873	0.200017261784524
43572.5	100	445	3	61	1	1	0	2	1	3	2	67.5	22.5	-2.85827876015576	-1.93753356996632	0.2	1	0.492161155212671	1	231.624828693224	231.724811845925	0.0999831527005881	0.200020918855444
43647.5	100	446	3	62	1	1	0	2	1	3	1	22.5	67.5	-1.04572830398078	-0.625004471959113	0.2	0	0	0	231.924812772544	232.02479446237	0.099981689825654	0.200000926619396
43722.5	100	447	3	63	1	1	0	2	1	3	1	112.5	67.5	0.473593514755991	-0.456893253323317	0.2	0	0	0	232.224819526076	232.324831448263	0.100011922186241	0.200025063706562
43797.5	100	448	3	64	1	1	0	2	1	0	2	67.5	112.5	2.51235156732259	1.3592425550479	0.2	0	0	0	232.524850660469	232.624859900912	0.100009240442887	0.200019212206826
43872.5	100	449	3	65	1	1	0	2	1	0	1	112.5	157.5	-2.66920688933327	0.0278293613579432	0.2	0	0	0	232.824861802626	232.924830083037	0.0999682804103941	0.200001901714131
43947.5	100	450	3	66	1	1	0	2	1	0	2	157.5	22.5	0.667946249109611	0.169681150548707	0.2	0	0	0	233.124877333408	233.22485292796	0.0999755945522338	0.200047250371426
44022.5	100	451	3	67	1	1	0	2	1	0	1	22.5	157.5	1.53188239394022	-1.21724045307619	0.2	0	0	0	233.424855805002	233.524836031953	0.09998022695072	0.200002877041698
44097.5	100	452	3	68	1	1	0	2	1	0	2	157.5	112.5	-1.80446205356685	-2.14385771909751	0.2	0	0	0	233.724863533629	233.82484717411	0.0999836404807866	0.200027501676232
44172.5	100	453	3	69	1	1	0	2	1	0	2	157.5	22.5	2.91559207459502	1.58508760789157	0.2	0	0	0	234.024870287161	234.124854902737	0.0999846155755222	0.200023113051429
44247.5	100	454	3	70	1	1	0	2	1	0	1	112.5	157.5	2.4045806430799	-1.75764985668347	0.2	0	0	0	234.324883379741	234.424862387823	0.0999790080823004	0.200028477003798
44322.5	100	455	3	71	1	1	0	2	1	0	2	67.5	112.5	-2.47675121482634	2.8227134438527	0.2	0	0	0	234.624895253219	234.724874748848	0.0999794956296682	0.200032865395769
44397.5	100	456	3	72	1	1	0	2	1	0	1	112.5	67.5	2.48256446557531	2.67285752566458	0.2	0	0	0	234.92491907347	235.024900763296	0.099981689825654	0.200044324621558
44472.5	100	457	3	73	1	1	0	2	1	0	2	67.5	112.5	-1.44763376828189	2.70682929377697	0.2	0	0	0	235.224908272736	235.324893132085	0.0999848593492061	0.200007509440184
44547.5	100	458	3	74	1	1	0	2	1	0	2	157.5	22.5	1.60224967768236	-1.87047141857232	0.2	0	0	0	235.524911856744	235.624892571475	0.0999807147309184	0.200018724659458
44622.5	100	459	3	75	1	1	0	2	1	0	1	112.5	157.5	2.15249675628316	0.534382012304074	0.2	0	0	0	235.82494835509	235.924925168743	0.099976813653484	0.200055783614516
44697.5	100	460	3	76	1	1	0	2	1	0	2	67.5	22.5	-2.89230574105314	-1.9790309324124	0.2	0	0	0	236.124954864848	236.224922413705	0.0999675488565117	0.200029696105048
44772.5	100	461	3	77	1	1	0	2	1	0	2	157.5	112.5	-1.78300560656974	-0.60088981959214	0.2	0	0	0	236.424935043091	236.52491746447	0.0999824213795364	0.200012629386038
44847.5	100	462	3	78	1	1	0	2	1	0	2	67.5	112.5	0.638596301535202	-1.07209170567634	0.2	0	0	0	236.724949842319	236.824950549286	0.100000706966966	0.200032377848402
44922.5	100	463	3	79	1	1	0	2	1	0	2	157.5	112.5	-0.643837312124758	-1.30119226398942	0.2	0	0	0	237.024956352077	237.124957302818	0.10000095074065	0.200005802791566
44997.5	100	464	3	80	1	1	0	2	1	0	1	112.5	157.5	3.09146126612781	-2.97752654131853	0.2	0	0	0	237.324986267369	237.424967469648	0.0999812022782862	0.200028964551166
45072.5	100	465	3	81	1	1	0	2	1	0	1	112.5	157.5	0.890472060239755	-1.89729341310552	0.2	0	0	0	237.624969127588	237.724951792741	0.0999826651532203	0.200001657940447
45147.5	100	466	3	82	1	1	0	2	1	0	1	22.5	157.5	-2.94861857334094	1.22324769693333	0.2	0	0	0	237.92498173262	238.024957327172	0.0999755945522338	0.200029939878732
45222.5	100	467	3	83	1	1	0	2	1	0	1	112.5	67.5	-0.389237886503647	1.97840328617672	0.2	0	0	0	238.224983366206	238.324992606416	0.100009240210056	0.200026039034128
45297.5	100	468	3	84	1	1	0	2	1	0	1	112.5	67.5	-1.42150642742964	0.0892968826642	0.2	0	0	0	238.525001334958	238.624998628628	0.0999972936697304	0.200008728541434
45372.5	100	469	3	85	1	1	0	2	1	0	2	157.5	22.5	-1.73086240281592	0.20335515980002	0.2	0	0	0	238.825028568506	238.925009039231	0.0999804707244039	0.200029939878732
45447.5	100	470	3	86	1	1	0	2	1	0	2	67.5	22.5	0.865554976582666	2.47266181915727	0.2	0	0	0	239.125035809586	239.225016524084	0.0999807144980878	0.20002677035518
45522.5	100	471	3	87	1	1	0	2	1	0	1	22.5	157.5	2.82539104982328	-0.488491267657011	0.2	0	0	0	239.425040612696	239.525024740491	0.0999841277953237	0.200024088611826
45597.5	100	472	3	88	1	1	0	2	1	0	1	22.5	157.5	1.03955407321576	0.289459369746064	0.2	0	0	0	239.725048585096	239.825030518929	0.0999819338321686	0.200023844605312
45672.5	100	473	3	89	1	1	0	2	1	0	1	22.5	157.5	2.12947671006923	-1.14724073410174	0.2	0	0	0	240.025034614839	240.12502483814	0.0999902233015746	0.200004095910117
45747.75	100	474	3	90	1	1	0	2	1	0	2	157.5	22.5	1.08711676999924	-1.70374446219081	0.2	0	0	0	240.325066237012	240.425031104125	0.0999648671131581	0.20004139887169
45822.75	100	475	3	91	1	1	0	2	1	0	1	22.5	157.5	-0.275658433589985	-0.315928211893544	0.2	0	0	0	240.625074697193	240.725034931907	0.099960234714672	0.200043593067676
45897.75	100	476	3	92	1	1	0	2	1	0	2	157.5	112.5	1.4563230233586	0.909143767777052	0.2	0	0	0	240.925057801185	241.025039491011	0.099981689825654	0.200022869277745
45972.75	100	477	3	93	1	1	0	2	1	0	2	67.5	112.5	1.95557844765194	-0.88407937228614	0.2	0	0	0	241.225065286038	241.325056240894	0.0999909548554569	0.200025795027614
46047.75	100	478	3	94	1	1	0	2	1	0	2	157.5	22.5	2.28431365408591	1.26925823180328	0.2	0	0	0	241.525075209094	241.625061043771	0.0999858346767724	0.200018968200311
46122.75	100	479	3	95	1	1	0	2	1	0	1	112.5	67.5	-0.833486972711898	-2.16707156095286	0.2	0	0	0	241.825083181728	241.925068528857	0.0999853471294045	0.200022137956694
46197.75	100	480	3	96	1	1	0	2	1	0	1	112.5	67.5	-0.588464218199996	-2.83019424156667	0.2	0	0	0	242.125090179034	242.225073575741	0.0999833967071027	0.200021650176495
46272.75	100	481	3	97	1	1	0	2	1	0	2	157.5	22.5	-0.677208651310869	-1.27243603051199	0.2	0	0	0	242.425098882988	242.525081060594	0.0999821776058525	0.200025307247415
46347.75	100	482	3	98	1	1	0	2	1	0	1	22.5	157.5	-0.626548832588359	-1.52943788731828	0.2	0	0	0	242.725106611848	242.825088789454	0.0999821776058525	0.20002555125393
46422.75	100	483	3	99	1	1	0	2	1	0	1	112.5	157.5	0.438460561381477	2.61278853763206	0.2	0	0	0	243.02511629113	243.125092129456	0.0999758383259177	0.200027501676232
46497.75	100	484	3	100	1	1	0	2	1	0	2	67.5	112.5	-2.53224196502684	-0.220991683376411	0.2	0	0	0	243.325152057922	243.425121557433	0.0999694995116442	0.200059928465635
46572.75	100	485	3	101	1	1	0	2	1	0	1	22.5	67.5	0.371525969617092	2.48819825175853	0.2	0	0	0	243.625141500961	243.72512026527	0.0999787643086165	0.200019943527877
46647.75	100	486	3	102	1	1	0	2	1	0	2	157.5	22.5	2.85100324686023	-2.43603734329082	0.2	0	0	0	243.925150204916	244.025131407194	0.0999812022782862	0.200029939645901
46722.75	100	487	3	103	1	1	0	2	1	3	2	67.5	112.5	-3.00227696272857	3.05990928993717	0.2	0	0	0	244.225152570056	244.325141086476	0.099988516420126	0.200021162861958
46797.75	100	488	3	104	1	1	0	2	1	3	2	157.5	22.5	1.97276360342979	-1.78037293432335	0.2	0	0	0	244.525185411097	244.625165394275	0.099979983177036	0.200044324621558
46872.75	100	489	3	105	1	1	0	2	1	3	1	22.5	67.5	-1.86747479404932	0.799113856480224	0.2	0	0	0	244.825197040802	244.925174586009	0.0999775452073663	0.20003164652735
46947.75	100	490	3	106	1	1	0	2	1	1	-1	0	135	-2.59408763261967	-1.01965244116349	0.2	0	0	0	245.125201112358	245.225183777511	0.0999826651532203	0.200026526348665
47022.75	100	491	3	107	1	1	0	2	1	3	1	112.5	67.5	2.57056410452909	2.20742813729109	0.2	0	0	0	245.425194456475	245.525194675894	0.100000219419599	0.200010678963736
47097.75	100	492	3	108	1	1	0	2	1	3	1	22.5	157.5	2.91225113560979	1.401913881729	0.2	1	0.50352390226908	1	245.725202916656	245.82518094941	0.0999780327547342	0.200008240761235
47172.75	100	493	3	109	1	1	0	2	1	3	2	67.5	22.5	-2.26507160781956	0.878736141895812	0.2	0	0	0	246.025203087367	246.125185508747	0.0999824213795364	0.200022137956694
47247.75	100	494	3	110	1	1	0	2	1	3	1	112.5	157.5	-0.10541903578503	-1.21070703030974	0.2	0	0	0	246.325231539784	246.425199088873	0.0999675490893424	0.200046031037346
47322.75	100	495	3	111	1	1	0	2	1	0	1	112.5	157.5	3.03757681495537	1.8529746200213	0.2	0	0	0	246.625218788628	246.725199990906	0.0999812022782862	0.200019699754193
47397.75	100	496	3	112	1	1	0	2	1	0	1	112.5	67.5	0.558301156807744	-1.82463757457852	0.2	0	0	0	246.92522554216	247.025208451087	0.0999829089269042	0.20002555125393
47472.75	100	497	3	113	1	1	0	2	1	0	1	22.5	157.5	0.726940859004535	-3.00781528027552	0.2	0	0	0	247.225236684317	247.32522178744	0.09998510312289	0.200028233230114
47547.75	100	498	3	114	1	1	0	2	1	0	1	112.5	67.5	-2.35888337893541	-0.695142290180848	0.2	0	0	0	247.525243194075	247.625223421026	0.09998022695072	0.200021406635642
47622.75	100	499	3	115	1	1	0	2	1	0	2	157.5	112.5	0.934457233132235	-2.84871159267762	0.2	0	0	0	247.825251410482	247.92523505073	0.0999836402479559	0.20002798945643
47697.75	100	500	3	116	1	1	0	2	1	0	2	67.5	112.5	-2.08534010180827	2.15714531055812	0.2	0	0	0	248.125273036305	248.225257408107	0.0999843718018383	0.200037985574454
47772.75	100	501	3	117	1	1	0	2	1	0	1	22.5	157.5	1.98416685216281	2.10516503425192	0.2	0	0	0	248.425282471813	248.525260992115	0.099978520302102	0.200025063706562
47847.75	100	502	3	118	1	1	0	2	1	0	2	67.5	112.5	0.723164606547694	-1.21688946328792	0.2	0	0	0	248.725295808166	248.825283837039	0.0999880288727582	0.200034816050902
47922.75	100	503	3	119	1	1	0	2	1	0	1	22.5	67.5	2.08841187701149	-0.989897390283855	0.2	0	0	0	249.025303049246	249.125273036305	0.0999699870590121	0.200019212206826
47997.75	100	504	3	120	1	1	0	2	1	0	2	67.5	112.5	-3.00808072962754	1.55268720043852	0.2	0	0	0	249.325304682832	249.425291736377	0.0999870535451919	0.20003164652735
48072.75	100	505	3	121	1	1	0	2	1	0	1	112.5	157.5	-1.28979314765191	2.80964654077645	0.2	0	0	0	249.625312411459	249.725296783261	0.0999843718018383	0.20002067508176
48147.75	100	506	3	122	1	1	0	2	1	0	2	157.5	112.5	2.39954727926759	0.0378294352562945	0.2	0	0	0	249.925306486897	250.025291590253	0.0999851033557206	0.200009703636169
48222.75	100	507	3	123	1	1	0	2	1	0	1	22.5	67.5	0.291773238901975	1.15387317899375	0.2	0	0	0	250.225316897733	250.325323943747	0.100007046014071	0.200025307480246
48297.75	100	508	3	124	1	1	0	2	1	0	2	67.5	112.5	-0.671147374104573	-1.75351373526749	0.2	0	0	0	250.525351445423	250.625329478178	0.0999780327547342	0.200027501676232
48372.75	100	509	3	125	1	1	0	2	1	0	1	112.5	157.5	-3.01127219076393	-1.9644442567675	0.2	0	0	0	250.825356492307	250.925336719258	0.09998022695072	0.200027014128864
48447.75	100	510	3	126	1	1	0	2	1	0	2	67.5	22.5	1.56234993862044	-2.35625866325397	0.2	0	0	0	251.125358125893	251.225354444236	0.0999963183421642	0.200021406635642
48522.75	100	511	3	127	1	1	0	2	1	0	1	112.5	67.5	-1.51243692210277	2.85222378261563	0.2	0	0	0	251.425349275582	251.525333891157	0.0999846155755222	0.199994831345975
48597.75	100	512	3	128	1	1	0	2	1	0	2	67.5	112.5	-2.65158005282029	-0.908678447317819	0.2	0	0	0	251.725354322465	251.825361368479	0.100007046014071	0.200020431308076
48672.75	100	513	3	129	1	1	0	2	1	0	2	67.5	22.5	3.12771793477828	0.408031290149727	0.2	0	0	0	252.025389114162	252.125366171589	0.0999770574271679	0.200027745682746
48747.75	100	514	3	130	1	1	0	2	1	0	2	67.5	112.5	-1.28167625618084	1.0251784716799	0.2	0	0	0	252.325371242827	252.425344399409	0.0999731565825641	0.200005071237683
48822.75	100	515	3	131	1	1	0	2	1	0	1	22.5	67.5	-0.998362241060819	-0.821985772790967	0.2	0	0	0	252.625372876413	252.725359686185	0.099986809771508	0.200028477003798
48897.75	100	516	3	132	1	1	0	2	1	3	2	67.5	112.5	-0.0511030771095506	1.05797897302101	0.2	0	0	0	252.925375241321	253.025360588217	0.0999853468965739	0.200015555135906
48972.75	100	517	3	133	1	1	0	2	1	3	1	22.5	157.5	0.177619003360921	-0.394098078816131	0.2	0	0	0	253.225422223331	253.325380751397	0.099958528066054	0.200061635114253
49047.75	100	518	3	134	1	1	0	2	1	3	2	157.5	112.5	1.42962957133684	0.933261110032142	0.2	0	0	0	253.525424832245	253.625404571649	0.0999797394033521	0.200044080847874
49122.75	100	519	3	135	1	1	0	2	1	3	1	22.5	67.5	-2.40542540759105	-0.752058065403984	0.2	0	0	0	253.825402816059	253.925383287016	0.0999804709572345	0.199998244410381
50072.75	100	520	4	0	2	2	0	1	2	3	1	112.5	67.5	-2.9025373525796	-0.483179096366703	0.2	0	0	0	257.625507215504	257.725523770088	0.100016554584727	-1
50143.5	100	521	4	1	2	2	0	1	2	3	1	22.5	67.5	2.49497317820071	-0.511793549931732	0.183333333333333	0	0	0	257.908890785649	258.008863942232	0.0999731565825641	0.183367015561089
50193.5	100	522	4	2	2	2	0	1	2	3	2	67.5	112.5	-0.653825794867581	-0.0643597983342401	0.1	0	0	0	258.10890487791	258.20886608772	0.0999612098094076	0.100040935678408
50293.5	100	523	4	3	2	2	0	1	2	3	2	67.5	22.5	-0.351292451358873	1.39034619789891	0.3	0	0	0	258.508896734798	258.608874767553	0.0999780327547342	0.300030647078529
50356	100	524	4	4	2	2	0	1	2	0	2	67.5	22.5	0.368540956232287	-1.70511619732083	0.15	0	0	0	258.758879363304	258.858854714083	0.0999753507785499	0.150004595750943
50406	100	525	4	5	2	2	0	1	2	0	1	22.5	67.5	1.58001994534131	-1.54102182092992	0.1	0	0	0	258.958882240113	259.058858566219	0.0999763261061162	0.100027526030317
50502	100	526	4	6	2	2	0	1	2	0	2	67.5	22.5	2.4631422251918	-1.05350132103482	0.283333333333333	0	0	0	259.342219218379	259.442215536954	0.0999963185749948	0.283360652159899
50593.5	100	527	4	7	2	2	0	1	2	0	2	157.5	22.5	-2.61660291967816	-2.12827126744097	0.266666666666667	0	0	0	259.708927649772	259.808890078682	0.0999624289106578	0.266712112817913
50647.75	100	528	4	8	2	2	0	1	2	0	2	157.5	112.5	0.827781643505729	-0.370231388154461	0.116666666666667	0	0	0	259.925595888868	260.025551734958	0.0999558460898697	0.116705810185522
50697.75	100	529	4	9	2	2	0	1	2	0	1	22.5	157.5	-3.11876773646781	0.623908840070157	0.1	0	0	0	260.125577554572	260.225558513077	0.0999809585046023	0.10002581961453
50764.5	100	530	4	10	2	2	0	1	2	0	1	112.5	157.5	0.285787684309709	-1.43013945902768	0.166666666666667	0	0	0	260.392246756703	260.492230397183	0.0999836404807866	0.166688243625686
50818.5	100	531	4	11	2	2	0	1	2	0	2	157.5	22.5	1.98505365036045	-2.28488461697537	0.116666666666667	0	0	0	260.608920847531	260.708902781131	0.0999819335993379	0.11669045034796
50885.25	100	532	4	12	2	2	0	1	2	0	2	67.5	112.5	-0.136511350626944	1.4449418249399	0.166666666666667	0	0	0	260.875592731638	260.975577834994	0.0999851033557206	0.166689950507134
50947.75	100	533	4	13	2	2	0	1	2	0	1	22.5	67.5	-0.82488026026713	-2.595864649603	0.15	0	0	0	261.12560169166	261.225582893938	0.0999812022782862	0.150023856665939
51014.5	100	534	4	14	2	2	0	1	2	0	1	22.5	157.5	2.23547510970542	2.25090189731577	0.166666666666667	0	0	0	261.392275770195	261.492292081006	0.100016310811043	0.166692876257002
51068.5	100	535	4	15	2	2	0	1	2	0	1	22.5	67.5	1.21194873305587	0.720647593381791	0.116666666666667	0	0	0	261.608949617017	261.708933988819	0.0999843718018383	0.116657536011189
51160.25	100	536	4	16	2	2	0	1	2	0	1	112.5	157.5	2.60664719692264	-1.71652369522317	0.266666666666667	0	0	0	261.97562805959	262.075608530547	0.0999804709572345	0.266694070771337
51235.25	100	537	4	17	2	2	0	1	2	0	2	157.5	22.5	0.260481475794762	-3.08382245167737	0.2	0	0	0	262.275636763778	262.375617234502	0.0999804707244039	0.200028233230114
51306	100	538	4	18	2	2	0	1	2	0	2	157.5	112.5	-1.2012708245664	2.16512380333415	0.183333333333333	0	0	0	262.559008631157	262.658983981935	0.0999753507785499	0.18339139665477
51385.25	100	539	4	19	2	2	0	1	2	0	1	22.5	67.5	1.21247190159365	-3.00221719142332	0.216666666666667	0	0	0	262.875661973609	262.975660730153	0.0999987565446645	0.21667799167335
51485.25	100	540	4	20	2	2	0	1	2	0	1	112.5	157.5	-0.0770730710295293	1.59598365260265	0.3	0	0	0	263.275665045483	263.375646003988	0.0999809585046023	0.300004315329716
51535.25	100	541	4	21	2	2	0	1	2	0	1	112.5	67.5	-3.13448371758818	0.21250483076723	0.1	0	0	0	263.47568181972	263.575679844711	0.0999980249907821	0.100035815732554
51606	100	542	4	22	2	2	0	1	2	0	1	112.5	67.5	-2.32805568589678	1.19613546047958	0.183333333333333	0	0	0	263.759039789904	263.859019529307	0.0999797394033521	0.183359945192933
51693.5	100	543	4	23	2	2	0	1	2	0	2	67.5	22.5	2.88383226745995	-1.87960509475457	0.25	0	0	0	264.109027270461	264.209030659404	0.100003388943151	0.25000774115324
51752	100	544	4	24	2	2	0	1	2	0	2	157.5	112.5	0.913871385891368	1.44968751332631	0.133333333333333	0	0	0	264.342368673766	264.442367917858	0.0999992440920323	0.13333801436238
51852	100	545	4	25	2	2	0	1	2	0	2	157.5	22.5	-2.9350282351424	-1.53657613872066	0.3	0	0	0	264.742376134265	264.842351972824	0.0999758385587484	0.30000821640715
51910.25	100	546	4	26	2	2	0	1	2	0	2	157.5	22.5	1.58463448078301	0.566179367819096	0.133333333333333	0	0	0	264.975739236921	265.075691669481	0.0999524325598031	0.133387264097109
51989.5	100	547	4	27	2	2	0	1	2	0	2	67.5	22.5	1.61365215226115	2.92069072495953	0.216666666666667	0	0	0	265.29238355835	265.392379389144	0.0999958307947963	0.216691888868809
52060.25	100	548	4	28	2	2	0	1	2	0	1	22.5	67.5	-2.84483215087034	0.604299992360679	0.183333333333333	0	0	0	265.575725924922	265.675735652912	0.100009727990255	0.183346535777673
52127	100	549	4	29	2	2	0	1	2	0	2	157.5	22.5	3.07468659925112	-2.13663300556613	0.166666666666667	0	0	0	265.842427553842	265.942409243667	0.099981689825654	0.166691900929436
52222.75	100	550	4	30	2	2	0	1	2	3	1	112.5	157.5	-2.04915107133053	-1.61894071046868	0.283333333333333	0	0	0	266.225758193061	266.325732568745	0.0999743756838143	0.283348949393257
52297.75	100	551	4	31	2	2	0	1	2	3	1	112.5	67.5	0.0443908156192876	-0.578253563823869	0.2	0	0	0	266.525755681796	266.625737127848	0.0999814460519701	0.200023113051429
52356	100	552	4	32	2	2	0	1	2	3	2	67.5	112.5	1.33047403003559	2.07260886946031	0.133333333333333	0	0	0	266.759116590023	266.85909949895	0.0999829089269042	0.133379462175071
52406	100	553	4	33	2	2	0	1	2	2	-1	45	0	-0.0729560442948047	1.87113148498145	0.1	0	0	0	266.959124830784	267.059087747242	0.0999629164580256	0.100025331834331
52485.25	100	554	4	34	2	2	0	1	2	3	2	67.5	22.5	-0.954387607118929	-0.681652090214905	0.216666666666667	0	0	0	267.275797434151	267.375782049727	0.0999846155755222	0.216709686908871
52585.25	100	555	4	35	2	2	0	1	2	3	2	157.5	22.5	-0.14047908642608	0.546085908853891	0.3	0	0	0	267.67581074615	267.775791704655	0.0999809585046023	0.300028696423396
52668.5	100	556	4	36	2	2	0	1	2	3	1	22.5	67.5	0.821962265063122	-0.916059702165832	0.233333333333333	0	0	0	268.009128719568	268.109109434299	0.0999807147309184	0.233337014913559
52756	100	557	4	37	2	2	0	1	2	3	1	22.5	157.5	2.84281947103583	-0.0591078655673494	0.25	0	0	0	268.359137411229	268.459121539257	0.0999841280281544	0.250027976930141
52839.5	100	558	4	38	2	2	0	1	2	0	2	157.5	22.5	2.39257751991436	-1.15293759023863	0.233333333333333	0	0	0	268.692482935265	268.79246169934	0.0999787640757859	0.23336139600724
52931.25	100	559	4	39	2	2	0	1	2	0	1	22.5	67.5	3.07399219958029	2.79749184733821	0.266666666666667	0	0	0	269.059154551243	269.159168180078	0.100013628834859	0.266692851902917
52981.25	100	560	4	40	2	2	0	1	2	0	2	157.5	112.5	1.91609171045301	-0.799700550495636	0.1	0	0	0	269.259187904419	269.359152039979	0.0999641355592757	0.100019724341109
53056.25	100	561	4	41	2	2	0	1	2	0	1	22.5	157.5	-0.142825327467023	-1.15007582461686	0.2	0	0	0	269.559171983507	269.659151479136	0.0999794956296682	0.200019943527877
53156.25	100	562	4	42	2	2	0	1	2	0	2	157.5	112.5	-0.911899643477305	0.769273286821902	0.3	0	0	0	269.959181150887	270.05916040251	0.0999792516231537	0.300029671750963
53210.25	100	563	4	43	2	2	0	1	2	0	1	112.5	157.5	2.57624374195595	-1.76052958701386	0.116666666666667	0	0	0	270.175847683335	270.275830836035	0.0999831527005881	0.116687280824408
53268.75	100	564	4	44	2	2	0	1	2	0	2	67.5	22.5	2.6493479850588	-2.4370649214591	0.133333333333333	0	0	0	270.409220782109	270.509199302411	0.099978520302102	0.133389946073294
53356.25	100	565	4	45	2	2	0	1	2	0	2	157.5	112.5	-1.24831337588724	-0.34572129040248	0.25	0	0	0	270.75920874998	270.85918288189	0.0999741319101304	0.250009447569028
53431.25	100	566	4	46	2	2	0	1	2	0	1	112.5	67.5	1.79549518427456	2.05298449396664	0.2	0	0	0	271.05920770159	271.159219380235	0.100011678645387	0.200024819700047
53502	100	567	4	47	2	2	0	1	2	0	1	112.5	157.5	-0.952435017715337	-0.835391239380937	0.183333333333333	0	0	0	271.342558845179	271.442535171285	0.0999763261061162	0.183339464943856
53602	100	568	4	48	2	2	0	1	2	0	2	67.5	112.5	-2.79428985957462	-1.36482808613286	0.3	0	0	0	271.742589223897	271.842551652808	0.0999624289106578	0.300054052611813
53693.75	100	569	4	49	2	2	0	1	2	0	2	67.5	112.5	-0.172961885739749	-1.31871135506681	0.266666666666667	0	0	0	272.109260839876	272.209230826935	0.0999699870590121	0.266709187068045
53760.25	100	570	4	50	2	2	0	1	2	0	1	22.5	67.5	2.50632495824475	0.648869527100755	0.166666666666667	0	0	0	272.37591004977	272.475922947284	0.100012897513807	0.166679222835228
53835.25	100	571	4	51	2	2	0	1	2	0	2	157.5	112.5	0.213224947504164	-1.44947165856458	0.2	0	0	0	272.675946060568	272.775926043745	0.099979983177036	0.20002311328426
53897.75	100	572	4	52	2	2	0	1	2	0	2	157.5	112.5	1.97648599763638	0.2086322798903	0.15	0	0	0	272.925951851066	273.025932809571	0.0999809585046023	0.150025807321072
53977	100	573	4	53	2	2	0	1	2	0	1	112.5	157.5	2.1461996169139	0.0709237823183844	0.216666666666667	0	0	0	273.242630305933	273.34259200329	0.0999616973567754	0.216697496362031
54072.75	100	574	4	54	2	2	0	1	2	0	1	22.5	67.5	1.86805793348818	-2.8944713546097	0.283333333333333	0	0	0	273.62595314323	273.725927518914	0.0999743756838143	0.283361139940098
54147.75	100	575	4	55	2	2	0	1	2	0	2	67.5	112.5	-1.26782150015131	-1.11778740161034	0.2	0	0	0	273.925953557715	274.025934028439	0.0999804707244039	0.200026038801298
54210.25	100	576	4	56	2	2	0	1	2	0	1	112.5	67.5	2.58105275326026	2.01684040963103	0.15	0	0	0	274.175984948175	274.275968588656	0.0999836404807866	0.150050919735804
54306.25	100	577	4	57	2	2	0	1	2	0	1	22.5	157.5	-2.60808546824604	-1.81753046177393	0.283333333333333	0	0	0	274.559304372175	274.65931556304	0.100011190865189	0.283335783518851
54368.75	100	578	4	58	2	2	0	1	2	0	1	112.5	157.5	0.031472665780591	1.57099979318248	0.15	0	0	0	274.809334543534	274.909317696467	0.0999831529334188	0.150018980493769
54418.75	100	579	4	59	2	2	0	1	2	0	2	67.5	22.5	-2.61733745212204	-2.66605681435396	0.1	0	0	0	275.009314502357	275.10930009326	0.0999855909030885	0.099996805889532
54493.75	100	580	4	60	2	2	0	1	2	0	2	67.5	22.5	-0.73497149955881	-0.0719579537837585	0.2	0	0	0	275.309348806506	275.409333665855	0.0999848593492061	0.20004871324636
54564.5	100	581	4	61	2	2	0	1	2	0	1	22.5	157.5	2.42637804210554	-0.486776515569494	0.183333333333333	0	0	0	275.592689953977	275.69267261913	0.0999826651532203	0.183356288122013
54647.75	100	582	4	62	2	2	0	1	2	0	2	67.5	22.5	1.96603284439755	0.944711035681815	0.233333333333333	0	0	0	275.926015241537	276.025995468488	0.09998022695072	0.233342622406781
54718.75	100	583	4	63	2	2	0	1	2	0	2	157.5	22.5	3.09528589691237	-3.11313110481651	0.183333333333333	0	0	0	276.209360777633	276.309337347513	0.0999765698798001	0.183365309145302
54806.25	100	584	4	64	2	2	0	1	2	0	2	67.5	112.5	0.381056942360964	-2.37327657439762	0.25	0	0	0	276.559360204497	276.659343113424	0.0999829089269042	0.250022856984288
54902	100	585	4	65	2	2	0	1	2	0	1	112.5	157.5	0.127117257735039	-0.604681687034591	0.283333333333333	0	0	0	276.942704740912	277.042681798572	0.0999770576599985	0.283361627487466
54981.25	100	586	4	66	2	2	0	1	2	0	2	67.5	112.5	-2.10428574002499	2.62707411469007	0.216666666666667	0	0	0	277.259377588285	277.359363422962	0.0999858346767724	0.216695789713413
55077	100	587	4	67	2	2	0	1	2	0	2	157.5	22.5	-0.0937185004902474	0.0125572460191554	0.283333333333333	0	0	0	277.642724806443	277.742702595424	0.0999777889810503	0.283361383480951
55152	100	588	4	68	2	2	0	1	2	3	1	112.5	157.5	2.55622233002685	2.26935457974833	0.2	0	0	0	277.942737655248	278.042713249801	0.0999755945522338	0.200035059824586
55247.75	100	589	4	69	2	2	0	1	2	3	2	67.5	22.5	-1.00517537301363	0.19882062442495	0.283333333333333	0	0	0	278.326074145967	278.426063637715	0.0999894917476922	0.283360896166414
55310.25	100	590	4	70	2	2	0	1	2	3	2	157.5	112.5	2.22552131846281	3.05631468093316	0.15	0	0	0	278.576087250607	278.676070159534	0.0999829089269042	0.150023612892255
55368.75	100	591	4	71	2	2	0	1	2	2	-1	45	0	-1.23265936137546	-2.65284590025879	0.133333333333333	0	0	0	278.809425728396	278.909404004924	0.0999782765284181	0.133355568861589
55439.5	100	592	4	72	2	2	0	1	2	3	2	157.5	22.5	1.89540092714159	2.31849488476276	0.183333333333333	0	0	0	279.092761268141	279.192745152395	0.0999838842544705	0.183357263216749
55489.5	100	593	4	73	2	2	0	1	2	3	1	112.5	67.5	-1.94196861347982	-1.53281249918474	0.1	1	0.475283191073686	-1	279.292768533807	279.392755099805	0.0999865659978241	0.100023381412029
55577	100	594	4	74	2	2	0	1	2	3	1	22.5	157.5	2.91248846306044	-1.76554298183394	0.25	0	0	0	279.642776737921	279.742755746003	0.0999790080823004	0.250021638115868
55677	100	595	4	75	2	2	0	1	2	3	2	67.5	112.5	-2.40449062306376	0.166211451962336	0.3	0	0	0	280.042786149075	280.142767838901	0.099981689825654	0.300030403072014
55727	100	596	4	76	2	2	0	1	2	0	2	67.5	112.5	-2.63557632982586	-0.514499807065652	0.1	0	0	0	280.242790001212	280.342774373014	0.0999843718018383	0.100022162310779
55785.25	100	597	4	77	2	2	0	1	2	0	2	67.5	112.5	0.459542712519118	3.11114527297919	0.133333333333333	0	0	0	280.476155298064	280.576138694538	0.099983396474272	0.133380925050005
55852	100	598	4	78	2	2	0	1	2	0	1	112.5	67.5	1.74172803755689	2.73732886516254	0.166666666666667	0	0	0	280.742814260302	280.842790098628	0.0999758383259177	0.166675565764308
55910.25	100	599	4	79	2	2	0	1	2	0	1	112.5	157.5	1.32498732543099	1.40736829493461	0.133333333333333	0	0	0	280.976174436975	281.076155883027	0.0999814460519701	0.133384338347241
56002	100	600	4	80	2	2	0	1	2	0	2	67.5	22.5	-0.593322242149708	-1.59440602002292	0.266666666666667	0	0	0	281.342847759603	281.442830424756	0.0999826651532203	0.266691876575351
56089.5	100	601	4	81	2	2	0	1	2	0	1	112.5	157.5	1.34526383650222	-1.67611037913505	0.25	0	0	0	281.692858645692	281.792838385096	0.0999797394033521	0.250028220936656
56172.75	100	602	4	82	2	2	0	1	2	0	1	112.5	67.5	-1.86032119724832	-0.371970268865403	0.233333333333333	0	0	0	282.026174668688	282.126161234686	0.0999865659978241	0.233336283592507
56264.5	100	603	4	83	2	2	0	1	2	0	1	22.5	157.5	-1.08239615913023	-1.12429790858959	0.266666666666667	0	0	0	282.392855549464	282.49283431354	0.0999787640757859	0.266694314777851
